workerId;itemId;ENCODING;OPTION_0_CONDITION_NO;OPTION_1_CONDITION_NO;ITEM_FUNCTION;ITEM_SUBGROUP;ANSWER;ANSWER_CONDITION_NO;ANSWER_POSITION;PRESENTATION_ORDER;PRESENTATION_ORDER_CONDITION;rt;time_elapsed;trial_index;;;;;;;;;;;;;;;;;;;;;;;;
191;f20_1_3;f20;1;3;filler;pseudo_windef;grammatical;1;below;? >> grammatical;condition 3 >> condition 1;7618;108732;10;;;;;;;;;;;;;;;;;;;;;;;;
191;f38_1_3;f38;1;3;filler;unrelated;grammatical;1;above;grammatical >> ?;condition 1 >> condition 3;6541;136413;13;;;;;;;;;;;;;;;;;;;;;;;;
191;f37_1_2;f37;1;2;filler;pseudo_CC/COM;grammatical;1;below;* >> grammatical;condition 2 >> condition 1;9792;189008;19;;;;;;;;;;;;;;;;;;;;;;;;
191;f29_1_3;f29;1;3;filler;unrelated;grammatical;1;above;grammatical >> ?;condition 1 >> condition 3;8518;227894;23;;;;;;;;;;;;;;;;;;;;;;;;
191;f47_1_2;f47;1;2;filler;unrelated;grammatical;1;above;grammatical >> *;condition 1 >> condition 2;6996;312727;33;;;;;;;;;;;;;;;;;;;;;;;;
191;f46_1_3;f46;1;3;filler;unrelated;grammatical;1;below;? >> grammatical;condition 3 >> condition 1;9545;333044;35;;;;;;;;;;;;;;;;;;;;;;;;
191;f41_1_3;f41;1;3;filler;unrelated (pseudo_manner);grammatical;1;below;? >> grammatical;condition 3 >> condition 1;8602;390544;41;;;;;;;;;;;;;;;;;;;;;;;;
191;f43_1_3;f43;1;3;filler;unrelated;grammatical;1;above;grammatical >> ?;condition 1 >> condition 3;5005;405159;43;;;;;;;;;;;;;;;;;;;;;;;;
191;f22_1_3;f22;1;3;filler;pseudo_windef;grammatical;1;below;? >> grammatical;condition 3 >> condition 1;13244;500139;53;;;;;;;;;;;;;;;;;;;;;;;;
191;f33_1_3;f33;1;3;filler;unrelated;?;3;above;? >> grammatical;condition 3 >> condition 1;7175;531821;56;;;;;;;;;;;;;;;;;;;;;;;;
191;f27_1_3;f27;1;3;filler;pseudo_manner/COM;grammatical;1;below;? >> grammatical;condition 3 >> condition 1;9716;581563;61;;;;;;;;;;;;;;;;;;;;;;;;
191;f30_1_3;f30;1;3;filler;unrelated;grammatical;1;above;grammatical >> ?;condition 1 >> condition 3;15716;615983;64;;;;;;;;;;;;;;;;;;;;;;;;
191;f28_1_2;f28;1;2;filler;unrelated;grammatical;1;below;* >> grammatical;condition 2 >> condition 1;6718;637291;66;;;;;;;;;;;;;;;;;;;;;;;;
191;f23_1_3;f23;1;3;filler;pseudo_windef;grammatical;1;above;grammatical >> ?;condition 1 >> condition 3;7058;660684;69;;;;;;;;;;;;;;;;;;;;;;;;
194;f28_1_2;f28;1;2;filler;unrelated;grammatical;1;above;grammatical >> *;condition 1 >> condition 2;10117;79700;6;;;;;;;;;;;;;;;;;;;;;;;;
194;f38_1_3;f38;1;3;filler;unrelated;grammatical;1;above;grammatical >> ?;condition 1 >> condition 3;9564;103479;8;;;;;;;;;;;;;;;;;;;;;;;;
194;f43_1_3;f43;1;3;filler;unrelated;grammatical;1;below;? >> grammatical;condition 3 >> condition 1;8068;218140;16;;;;;;;;;;;;;;;;;;;;;;;;
194;f23_1_3;f23;1;3;filler;pseudo_windef;grammatical;1;below;? >> grammatical;condition 3 >> condition 1;7898;282493;21;;;;;;;;;;;;;;;;;;;;;;;;
194;f20_1_3;f20;1;3;filler;pseudo_windef;grammatical;1;above;grammatical >> ?;condition 1 >> condition 3;12744;319104;24;;;;;;;;;;;;;;;;;;;;;;;;
194;f41_1_3;f41;1;3;filler;unrelated (pseudo_manner);grammatical;1;above;grammatical >> ?;condition 1 >> condition 3;10898;435949;34;;;;;;;;;;;;;;;;;;;;;;;;
194;f46_1_3;f46;1;3;filler;unrelated;grammatical;1;below;? >> grammatical;condition 3 >> condition 1;10549;459131;36;;;;;;;;;;;;;;;;;;;;;;;;
194;f29_1_3;f29;1;3;filler;unrelated;grammatical;1;above;grammatical >> ?;condition 1 >> condition 3;9765;479364;38;;;;;;;;;;;;;;;;;;;;;;;;
194;f30_1_3;f30;1;3;filler;unrelated;grammatical;1;below;? >> grammatical;condition 3 >> condition 1;10150;521011;42;;;;;;;;;;;;;;;;;;;;;;;;
194;f47_1_2;f47;1;2;filler;unrelated;grammatical;1;below;* >> grammatical;condition 2 >> condition 1;8517;715964;57;;;;;;;;;;;;;;;;;;;;;;;;
194;f37_1_2;f37;1;2;filler;pseudo_CC/COM;grammatical;1;below;* >> grammatical;condition 2 >> condition 1;10878;759893;61;;;;;;;;;;;;;;;;;;;;;;;;
194;f27_1_3;f27;1;3;filler;pseudo_manner/COM;grammatical;1;above;grammatical >> ?;condition 1 >> condition 3;20766;800759;64;;;;;;;;;;;;;;;;;;;;;;;;
194;f33_1_3;f33;1;3;filler;unrelated;?;3;below;grammatical >> ?;condition 1 >> condition 3;15831;829041;66;;;;;;;;;;;;;;;;;;;;;;;;
194;f22_1_3;f22;1;3;filler;pseudo_windef;grammatical;1;above;grammatical >> ?;condition 1 >> condition 3;13278;870635;69;;;;;;;;;;;;;;;;;;;;;;;;
196;f46_1_3;f46;1;3;filler;unrelated;grammatical;1;below;? >> grammatical;condition 3 >> condition 1;9210;96205;10;;;;;;;;;;;;;;;;;;;;;;;;
196;f33_1_3;f33;1;3;filler;unrelated;grammatical;1;above;grammatical >> ?;condition 1 >> condition 3;4066;141537;16;;;;;;;;;;;;;;;;;;;;;;;;
196;f23_1_3;f23;1;3;filler;pseudo_windef;grammatical;1;below;? >> grammatical;condition 3 >> condition 1;5875;187859;22;;;;;;;;;;;;;;;;;;;;;;;;
196;f28_1_2;f28;1;2;filler;unrelated;grammatical;1;above;grammatical >> *;condition 1 >> condition 2;6787;217513;26;;;;;;;;;;;;;;;;;;;;;;;;
196;f20_1_3;f20;1;3;filler;pseudo_windef;grammatical;1;above;grammatical >> ?;condition 1 >> condition 3;4557;230999;28;;;;;;;;;;;;;;;;;;;;;;;;
196;f41_1_3;f41;1;3;filler;unrelated (pseudo_manner);grammatical;1;below;? >> grammatical;condition 3 >> condition 1;6467;262883;32;;;;;;;;;;;;;;;;;;;;;;;;
196;f27_1_3;f27;1;3;filler;pseudo_manner/COM;grammatical;1;above;grammatical >> ?;condition 1 >> condition 3;5007;277221;34;;;;;;;;;;;;;;;;;;;;;;;;
196;f43_1_3;f43;1;3;filler;unrelated;grammatical;1;above;grammatical >> ?;condition 1 >> condition 3;5697;295345;37;;;;;;;;;;;;;;;;;;;;;;;;
196;f29_1_3;f29;1;3;filler;unrelated;grammatical;1;above;grammatical >> ?;condition 1 >> condition 3;6507;307975;39;;;;;;;;;;;;;;;;;;;;;;;;
196;f37_1_2;f37;1;2;filler;pseudo_CC/COM;grammatical;1;above;grammatical >> *;condition 1 >> condition 2;14498;399699;48;;;;;;;;;;;;;;;;;;;;;;;;
196;f47_1_2;f47;1;2;filler;unrelated;grammatical;1;above;grammatical >> *;condition 1 >> condition 2;9199;486910;57;;;;;;;;;;;;;;;;;;;;;;;;
196;f30_1_3;f30;1;3;filler;unrelated;?;3;above;? >> grammatical;condition 3 >> condition 1;8822;501743;59;;;;;;;;;;;;;;;;;;;;;;;;
196;f22_1_3;f22;1;3;filler;pseudo_windef;grammatical;1;above;grammatical >> ?;condition 1 >> condition 3;4707;543896;64;;;;;;;;;;;;;;;;;;;;;;;;
196;f38_1_3;f38;1;3;filler;unrelated;grammatical;1;below;? >> grammatical;condition 3 >> condition 1;4026;595651;71;;;;;;;;;;;;;;;;;;;;;;;;
197;f27_1_3;f27;1;3;filler;pseudo_manner/COM;grammatical;1;below;? >> grammatical;condition 3 >> condition 1;21178;86048;8;;;;;;;;;;;;;;;;;;;;;;;;
197;f30_1_3;f30;1;3;filler;unrelated;grammatical;1;above;grammatical >> ?;condition 1 >> condition 3;16825;116804;10;;;;;;;;;;;;;;;;;;;;;;;;
197;f43_1_3;f43;1;3;filler;unrelated;grammatical;1;below;? >> grammatical;condition 3 >> condition 1;5233;170316;17;;;;;;;;;;;;;;;;;;;;;;;;
197;f46_1_3;f46;1;3;filler;unrelated;grammatical;1;above;grammatical >> ?;condition 1 >> condition 3;9327;192231;20;;;;;;;;;;;;;;;;;;;;;;;;
197;f47_1_2;f47;1;2;filler;unrelated;grammatical;1;below;* >> grammatical;condition 2 >> condition 1;3508;247090;25;;;;;;;;;;;;;;;;;;;;;;;;
197;f28_1_2;f28;1;2;filler;unrelated;grammatical;1;below;* >> grammatical;condition 2 >> condition 1;6005;272091;28;;;;;;;;;;;;;;;;;;;;;;;;
197;f41_1_3;f41;1;3;filler;unrelated (pseudo_manner);grammatical;1;below;? >> grammatical;condition 3 >> condition 1;7759;288137;30;;;;;;;;;;;;;;;;;;;;;;;;
197;f29_1_3;f29;1;3;filler;unrelated;grammatical;1;below;? >> grammatical;condition 3 >> condition 1;33367;333640;33;;;;;;;;;;;;;;;;;;;;;;;;
197;f22_1_3;f22;1;3;filler;pseudo_windef;?;3;below;grammatical >> ?;condition 1 >> condition 3;13251;368968;35;;;;;;;;;;;;;;;;;;;;;;;;
197;f20_1_3;f20;1;3;filler;pseudo_windef;?;3;below;grammatical >> ?;condition 1 >> condition 3;12936;391773;37;;;;;;;;;;;;;;;;;;;;;;;;
197;f38_1_3;f38;1;3;filler;unrelated;grammatical;1;below;? >> grammatical;condition 3 >> condition 1;10858;514260;51;;;;;;;;;;;;;;;;;;;;;;;;
197;f23_1_3;f23;1;3;filler;pseudo_windef;?;3;below;grammatical >> ?;condition 1 >> condition 3;8983;546970;54;;;;;;;;;;;;;;;;;;;;;;;;
197;f37_1_2;f37;1;2;filler;pseudo_CC/COM;grammatical;1;above;grammatical >> *;condition 1 >> condition 2;5867;581265;59;;;;;;;;;;;;;;;;;;;;;;;;
197;f33_1_3;f33;1;3;filler;unrelated;grammatical;1;above;grammatical >> ?;condition 1 >> condition 3;8219;647360;69;;;;;;;;;;;;;;;;;;;;;;;;
198;f28_1_2;f28;1;2;filler;unrelated;grammatical;1;below;* >> grammatical;condition 2 >> condition 1;16499;111700;6;;;;;;;;;;;;;;;;;;;;;;;;
198;f47_1_2;f47;1;2;filler;unrelated;grammatical;1;below;* >> grammatical;condition 2 >> condition 1;8295;174076;10;;;;;;;;;;;;;;;;;;;;;;;;
198;f37_1_2;f37;1;2;filler;pseudo_CC/COM;grammatical;1;below;* >> grammatical;condition 2 >> condition 1;19765;243985;15;;;;;;;;;;;;;;;;;;;;;;;;
198;f33_1_3;f33;1;3;filler;unrelated;grammatical;1;above;grammatical >> ?;condition 1 >> condition 3;14679;288987;17;;;;;;;;;;;;;;;;;;;;;;;;
198;f29_1_3;f29;1;3;filler;unrelated;grammatical;1;above;grammatical >> ?;condition 1 >> condition 3;10595;313218;19;;;;;;;;;;;;;;;;;;;;;;;;
198;f46_1_3;f46;1;3;filler;unrelated;grammatical;1;above;grammatical >> ?;condition 1 >> condition 3;18278;408905;24;;;;;;;;;;;;;;;;;;;;;;;;
198;f23_1_3;f23;1;3;filler;pseudo_windef;grammatical;1;above;grammatical >> ?;condition 1 >> condition 3;11552;559114;34;;;;;;;;;;;;;;;;;;;;;;;;
198;f38_1_3;f38;1;3;filler;unrelated;grammatical;1;below;? >> grammatical;condition 3 >> condition 1;7296;597874;38;;;;;;;;;;;;;;;;;;;;;;;;
198;f27_1_3;f27;1;3;filler;pseudo_manner/COM;grammatical;1;below;? >> grammatical;condition 3 >> condition 1;15641;642107;40;;;;;;;;;;;;;;;;;;;;;;;;
198;f41_1_3;f41;1;3;filler;unrelated (pseudo_manner);grammatical;1;below;? >> grammatical;condition 3 >> condition 1;18496;690376;43;;;;;;;;;;;;;;;;;;;;;;;;
198;f30_1_3;f30;1;3;filler;unrelated;grammatical;1;above;grammatical >> ?;condition 1 >> condition 3;14198;720900;46;;;;;;;;;;;;;;;;;;;;;;;;
198;f20_1_3;f20;1;3;filler;pseudo_windef;grammatical;1;above;grammatical >> ?;condition 1 >> condition 3;14224;806961;53;;;;;;;;;;;;;;;;;;;;;;;;
198;f22_1_3;f22;1;3;filler;pseudo_windef;grammatical;1;below;? >> grammatical;condition 3 >> condition 1;14035;865807;58;;;;;;;;;;;;;;;;;;;;;;;;
198;f43_1_3;f43;1;3;filler;unrelated;grammatical;1;above;grammatical >> ?;condition 1 >> condition 3;9732;970822;67;;;;;;;;;;;;;;;;;;;;;;;;
200;f29_1_3;f29;1;3;filler;unrelated;grammatical;1;below;? >> grammatical;condition 3 >> condition 1;9128;142075;10;;;;;;;;;;;;;;;;;;;;;;;;
200;f38_1_3;f38;1;3;filler;unrelated;grammatical;1;below;? >> grammatical;condition 3 >> condition 1;7963;205982;16;;;;;;;;;;;;;;;;;;;;;;;;
200;f23_1_3;f23;1;3;filler;pseudo_windef;grammatical;1;above;grammatical >> ?;condition 1 >> condition 3;11180;249386;19;;;;;;;;;;;;;;;;;;;;;;;;
200;f41_1_3;f41;1;3;filler;unrelated (pseudo_manner);grammatical;1;above;grammatical >> ?;condition 1 >> condition 3;17880;308542;24;;;;;;;;;;;;;;;;;;;;;;;;
200;f22_1_3;f22;1;3;filler;pseudo_windef;grammatical;1;above;grammatical >> ?;condition 1 >> condition 3;9431;331594;27;;;;;;;;;;;;;;;;;;;;;;;;
200;f46_1_3;f46;1;3;filler;unrelated;grammatical;1;above;grammatical >> ?;condition 1 >> condition 3;15797;393916;31;;;;;;;;;;;;;;;;;;;;;;;;
200;f28_1_2;f28;1;2;filler;unrelated;grammatical;1;below;* >> grammatical;condition 2 >> condition 1;7713;426387;34;;;;;;;;;;;;;;;;;;;;;;;;
200;f37_1_2;f37;1;2;filler;pseudo_CC/COM;grammatical;1;above;grammatical >> *;condition 1 >> condition 2;15531;487709;39;;;;;;;;;;;;;;;;;;;;;;;;
200;f27_1_3;f27;1;3;filler;pseudo_manner/COM;grammatical;1;above;grammatical >> ?;condition 1 >> condition 3;15147;548348;44;;;;;;;;;;;;;;;;;;;;;;;;
200;f43_1_3;f43;1;3;filler;unrelated;grammatical;1;above;grammatical >> ?;condition 1 >> condition 3;7197;567051;46;;;;;;;;;;;;;;;;;;;;;;;;
200;f47_1_2;f47;1;2;filler;unrelated;grammatical;1;below;* >> grammatical;condition 2 >> condition 1;6280;597603;49;;;;;;;;;;;;;;;;;;;;;;;;
200;f20_1_3;f20;1;3;filler;pseudo_windef;grammatical;1;above;grammatical >> ?;condition 1 >> condition 3;13065;618789;51;;;;;;;;;;;;;;;;;;;;;;;;
200;f30_1_3;f30;1;3;filler;unrelated;grammatical;1;above;grammatical >> ?;condition 1 >> condition 3;13815;685162;57;;;;;;;;;;;;;;;;;;;;;;;;
200;f33_1_3;f33;1;3;filler;unrelated;grammatical;1;above;grammatical >> ?;condition 1 >> condition 3;20815;797223;67;;;;;;;;;;;;;;;;;;;;;;;;
201;f27_1_3;f27;1;3;filler;pseudo_manner/COM;grammatical;1;above;grammatical >> ?;condition 1 >> condition 3;9468;80296;6;;;;;;;;;;;;;;;;;;;;;;;;
201;f23_1_3;f23;1;3;filler;pseudo_windef;grammatical;1;below;? >> grammatical;condition 3 >> condition 1;6705;97235;8;;;;;;;;;;;;;;;;;;;;;;;;
201;f43_1_3;f43;1;3;filler;unrelated;grammatical;1;above;grammatical >> ?;condition 1 >> condition 3;6846;125325;11;;;;;;;;;;;;;;;;;;;;;;;;
201;f33_1_3;f33;1;3;filler;unrelated;grammatical;1;above;grammatical >> ?;condition 1 >> condition 3;23824;223666;19;;;;;;;;;;;;;;;;;;;;;;;;
201;f30_1_3;f30;1;3;filler;unrelated;grammatical;1;above;grammatical >> ?;condition 1 >> condition 3;11196;246072;21;;;;;;;;;;;;;;;;;;;;;;;;
201;f47_1_2;f47;1;2;filler;unrelated;grammatical;1;above;grammatical >> *;condition 1 >> condition 2;7326;262526;23;;;;;;;;;;;;;;;;;;;;;;;;
201;f41_1_3;f41;1;3;filler;unrelated (pseudo_manner);grammatical;1;above;grammatical >> ?;condition 1 >> condition 3;9328;281951;25;;;;;;;;;;;;;;;;;;;;;;;;
201;f29_1_3;f29;1;3;filler;unrelated;grammatical;1;above;grammatical >> ?;condition 1 >> condition 3;8145;297501;27;;;;;;;;;;;;;;;;;;;;;;;;
201;f20_1_3;f20;1;3;filler;pseudo_windef;grammatical;1;above;grammatical >> ?;condition 1 >> condition 3;9213;334984;30;;;;;;;;;;;;;;;;;;;;;;;;
201;f38_1_3;f38;1;3;filler;unrelated;grammatical;1;below;? >> grammatical;condition 3 >> condition 1;7079;355731;32;;;;;;;;;;;;;;;;;;;;;;;;
201;f28_1_2;f28;1;2;filler;unrelated;grammatical;1;above;grammatical >> *;condition 1 >> condition 2;7841;403463;38;;;;;;;;;;;;;;;;;;;;;;;;
201;f22_1_3;f22;1;3;filler;pseudo_windef;grammatical;1;below;? >> grammatical;condition 3 >> condition 1;12952;613842;56;;;;;;;;;;;;;;;;;;;;;;;;
201;f37_1_2;f37;1;2;filler;pseudo_CC/COM;grammatical;1;below;* >> grammatical;condition 2 >> condition 1;9480;661738;60;;;;;;;;;;;;;;;;;;;;;;;;
201;f46_1_3;f46;1;3;filler;unrelated;grammatical;1;below;? >> grammatical;condition 3 >> condition 1;6484;713098;66;;;;;;;;;;;;;;;;;;;;;;;;
207;f22_1_3;f22;1;3;filler;pseudo_windef;grammatical;1;above;grammatical >> ?;condition 1 >> condition 3;6535;99388;9;;;;;;;;;;;;;;;;;;;;;;;;
207;f46_1_3;f46;1;3;filler;unrelated;grammatical;1;below;? >> grammatical;condition 3 >> condition 1;17373;186450;15;;;;;;;;;;;;;;;;;;;;;;;;
207;f47_1_2;f47;1;2;filler;unrelated;grammatical;1;above;grammatical >> *;condition 1 >> condition 2;7199;209846;17;;;;;;;;;;;;;;;;;;;;;;;;
207;f27_1_3;f27;1;3;filler;pseudo_manner/COM;grammatical;1;above;grammatical >> ?;condition 1 >> condition 3;15209;257399;19;;;;;;;;;;;;;;;;;;;;;;;;
207;f30_1_3;f30;1;3;filler;unrelated;grammatical;1;below;? >> grammatical;condition 3 >> condition 1;9480;297170;22;;;;;;;;;;;;;;;;;;;;;;;;
207;f43_1_3;f43;1;3;filler;unrelated;grammatical;1;above;grammatical >> ?;condition 1 >> condition 3;6714;424897;29;;;;;;;;;;;;;;;;;;;;;;;;
207;f41_1_3;f41;1;3;filler;unrelated (pseudo_manner);grammatical;1;above;grammatical >> ?;condition 1 >> condition 3;12729;448355;31;;;;;;;;;;;;;;;;;;;;;;;;
207;f33_1_3;f33;1;3;filler;unrelated;?;3;above;? >> grammatical;condition 3 >> condition 1;11897;487107;35;;;;;;;;;;;;;;;;;;;;;;;;
207;f29_1_3;f29;1;3;filler;unrelated;grammatical;1;above;grammatical >> ?;condition 1 >> condition 3;12428;514329;37;;;;;;;;;;;;;;;;;;;;;;;;
207;f20_1_3;f20;1;3;filler;pseudo_windef;grammatical;1;above;grammatical >> ?;condition 1 >> condition 3;11054;612862;45;;;;;;;;;;;;;;;;;;;;;;;;
207;f28_1_2;f28;1;2;filler;unrelated;grammatical;1;below;* >> grammatical;condition 2 >> condition 1;9260;644100;47;;;;;;;;;;;;;;;;;;;;;;;;
207;f38_1_3;f38;1;3;filler;unrelated;grammatical;1;below;? >> grammatical;condition 3 >> condition 1;4871;702800;51;;;;;;;;;;;;;;;;;;;;;;;;
207;f37_1_2;f37;1;2;filler;pseudo_CC/COM;grammatical;1;above;grammatical >> *;condition 1 >> condition 2;16951;829271;63;;;;;;;;;;;;;;;;;;;;;;;;
207;f23_1_3;f23;1;3;filler;pseudo_windef;grammatical;1;below;? >> grammatical;condition 3 >> condition 1;9160;885175;69;;;;;;;;;;;;;;;;;;;;;;;;
208;f37_1_2;f37;1;2;filler;pseudo_CC/COM;grammatical;1;below;* >> grammatical;condition 2 >> condition 1;6539;121066;10;;;;;;;;;;;;;;;;;;;;;;;;
208;f46_1_3;f46;1;3;filler;unrelated;?;3;below;grammatical >> ?;condition 1 >> condition 3;15373;154764;13;;;;;;;;;;;;;;;;;;;;;;;;
208;f22_1_3;f22;1;3;filler;pseudo_windef;?;3;below;grammatical >> ?;condition 1 >> condition 3;9635;201063;18;;;;;;;;;;;;;;;;;;;;;;;;
208;f20_1_3;f20;1;3;filler;pseudo_windef;grammatical;1;below;? >> grammatical;condition 3 >> condition 1;7836;259572;24;;;;;;;;;;;;;;;;;;;;;;;;
208;f38_1_3;f38;1;3;filler;unrelated;grammatical;1;below;? >> grammatical;condition 3 >> condition 1;8971;300102;28;;;;;;;;;;;;;;;;;;;;;;;;
208;f28_1_2;f28;1;2;filler;unrelated;grammatical;1;below;* >> grammatical;condition 2 >> condition 1;4059;353805;33;;;;;;;;;;;;;;;;;;;;;;;;
208;f33_1_3;f33;1;3;filler;unrelated;?;3;below;grammatical >> ?;condition 1 >> condition 3;6645;395141;35;;;;;;;;;;;;;;;;;;;;;;;;
208;f27_1_3;f27;1;3;filler;pseudo_manner/COM;grammatical;1;below;? >> grammatical;condition 3 >> condition 1;8206;430659;37;;;;;;;;;;;;;;;;;;;;;;;;
208;f30_1_3;f30;1;3;filler;unrelated;?;3;below;grammatical >> ?;condition 1 >> condition 3;11596;502922;46;;;;;;;;;;;;;;;;;;;;;;;;
208;f29_1_3;f29;1;3;filler;unrelated;grammatical;1;below;? >> grammatical;condition 3 >> condition 1;29271;548653;48;;;;;;;;;;;;;;;;;;;;;;;;
208;f41_1_3;f41;1;3;filler;unrelated (pseudo_manner);?;3;below;grammatical >> ?;condition 1 >> condition 3;6285;559853;50;;;;;;;;;;;;;;;;;;;;;;;;
208;f47_1_2;f47;1;2;filler;unrelated;grammatical;1;below;* >> grammatical;condition 2 >> condition 1;8998;576224;52;;;;;;;;;;;;;;;;;;;;;;;;
208;f43_1_3;f43;1;3;filler;unrelated;grammatical;1;below;? >> grammatical;condition 3 >> condition 1;4287;670940;63;;;;;;;;;;;;;;;;;;;;;;;;
208;f23_1_3;f23;1;3;filler;pseudo_windef;?;3;below;grammatical >> ?;condition 1 >> condition 3;5261;682088;65;;;;;;;;;;;;;;;;;;;;;;;;
209;f29_1_3;f29;1;3;filler;unrelated;grammatical;1;above;grammatical >> ?;condition 1 >> condition 3;7144;53974;6;;;;;;;;;;;;;;;;;;;;;;;;
209;f47_1_2;f47;1;2;filler;unrelated;grammatical;1;below;* >> grammatical;condition 2 >> condition 1;5836;130537;14;;;;;;;;;;;;;;;;;;;;;;;;
209;f38_1_3;f38;1;3;filler;unrelated;grammatical;1;above;grammatical >> ?;condition 1 >> condition 3;8153;179566;19;;;;;;;;;;;;;;;;;;;;;;;;
209;f41_1_3;f41;1;3;filler;unrelated (pseudo_manner);grammatical;1;below;? >> grammatical;condition 3 >> condition 1;13669;229809;23;;;;;;;;;;;;;;;;;;;;;;;;
209;f33_1_3;f33;1;3;filler;unrelated;grammatical;1;above;grammatical >> ?;condition 1 >> condition 3;30066;297545;28;;;;;;;;;;;;;;;;;;;;;;;;
209;f23_1_3;f23;1;3;filler;pseudo_windef;grammatical;1;above;grammatical >> ?;condition 1 >> condition 3;6539;311747;30;;;;;;;;;;;;;;;;;;;;;;;;
209;f27_1_3;f27;1;3;filler;pseudo_manner/COM;grammatical;1;above;grammatical >> ?;condition 1 >> condition 3;11333;356109;35;;;;;;;;;;;;;;;;;;;;;;;;
209;f37_1_2;f37;1;2;filler;pseudo_CC/COM;grammatical;1;below;* >> grammatical;condition 2 >> condition 1;10311;405593;40;;;;;;;;;;;;;;;;;;;;;;;;
209;f22_1_3;f22;1;3;filler;pseudo_windef;grammatical;1;above;grammatical >> ?;condition 1 >> condition 3;5856;429756;44;;;;;;;;;;;;;;;;;;;;;;;;
209;f28_1_2;f28;1;2;filler;unrelated;grammatical;1;below;* >> grammatical;condition 2 >> condition 1;5491;448580;47;;;;;;;;;;;;;;;;;;;;;;;;
209;f20_1_3;f20;1;3;filler;pseudo_windef;grammatical;1;above;grammatical >> ?;condition 1 >> condition 3;5296;468355;50;;;;;;;;;;;;;;;;;;;;;;;;
209;f46_1_3;f46;1;3;filler;unrelated;grammatical;1;above;grammatical >> ?;condition 1 >> condition 3;7457;510630;55;;;;;;;;;;;;;;;;;;;;;;;;
209;f30_1_3;f30;1;3;filler;unrelated;grammatical;1;above;grammatical >> ?;condition 1 >> condition 3;7975;634823;69;;;;;;;;;;;;;;;;;;;;;;;;
209;f43_1_3;f43;1;3;filler;unrelated;grammatical;1;above;grammatical >> ?;condition 1 >> condition 3;5123;643905;71;;;;;;;;;;;;;;;;;;;;;;;;
213;f33_1_3;f33;1;3;filler;unrelated;grammatical;1;above;grammatical >> ?;condition 1 >> condition 3;10933;65439;6;;;;;;;;;;;;;;;;;;;;;;;;
213;f22_1_3;f22;1;3;filler;pseudo_windef;grammatical;1;above;grammatical >> ?;condition 1 >> condition 3;8824;113217;12;;;;;;;;;;;;;;;;;;;;;;;;
213;f43_1_3;f43;1;3;filler;unrelated;grammatical;1;above;grammatical >> ?;condition 1 >> condition 3;5471;164206;19;;;;;;;;;;;;;;;;;;;;;;;;
213;f41_1_3;f41;1;3;filler;unrelated (pseudo_manner);grammatical;1;above;grammatical >> ?;condition 1 >> condition 3;6770;215933;26;;;;;;;;;;;;;;;;;;;;;;;;
213;f38_1_3;f38;1;3;filler;unrelated;grammatical;1;above;grammatical >> ?;condition 1 >> condition 3;4612;275532;33;;;;;;;;;;;;;;;;;;;;;;;;
213;f37_1_2;f37;1;2;filler;pseudo_CC/COM;grammatical;1;above;grammatical >> *;condition 1 >> condition 2;5367;290998;36;;;;;;;;;;;;;;;;;;;;;;;;
213;f23_1_3;f23;1;3;filler;pseudo_windef;grammatical;1;below;? >> grammatical;condition 3 >> condition 1;5761;304867;38;;;;;;;;;;;;;;;;;;;;;;;;
213;f47_1_2;f47;1;2;filler;unrelated;grammatical;1;below;* >> grammatical;condition 2 >> condition 1;6280;359806;46;;;;;;;;;;;;;;;;;;;;;;;;
213;f20_1_3;f20;1;3;filler;pseudo_windef;grammatical;1;below;? >> grammatical;condition 3 >> condition 1;12124;380799;49;;;;;;;;;;;;;;;;;;;;;;;;
213;f28_1_2;f28;1;2;filler;unrelated;grammatical;1;above;grammatical >> *;condition 1 >> condition 2;9019;394448;51;;;;;;;;;;;;;;;;;;;;;;;;
213;f29_1_3;f29;1;3;filler;unrelated;grammatical;1;above;grammatical >> ?;condition 1 >> condition 3;5701;430144;55;;;;;;;;;;;;;;;;;;;;;;;;
213;f27_1_3;f27;1;3;filler;pseudo_manner/COM;grammatical;1;above;grammatical >> ?;condition 1 >> condition 3;5995;441984;57;;;;;;;;;;;;;;;;;;;;;;;;
213;f30_1_3;f30;1;3;filler;unrelated;grammatical;1;above;grammatical >> ?;condition 1 >> condition 3;9259;461248;59;;;;;;;;;;;;;;;;;;;;;;;;
213;f46_1_3;f46;1;3;filler;unrelated;grammatical;1;above;grammatical >> ?;condition 1 >> condition 3;5365;501310;67;;;;;;;;;;;;;;;;;;;;;;;;
214;f30_1_3;f30;1;3;filler;unrelated;grammatical;1;above;grammatical >> ?;condition 1 >> condition 3;22582;151518;6;;;;;;;;;;;;;;;;;;;;;;;;
214;f43_1_3;f43;1;3;filler;unrelated;grammatical;1;above;grammatical >> ?;condition 1 >> condition 3;11949;233476;11;;;;;;;;;;;;;;;;;;;;;;;;
214;f33_1_3;f33;1;3;filler;unrelated;?;3;below;grammatical >> ?;condition 1 >> condition 3;33452;362089;17;;;;;;;;;;;;;;;;;;;;;;;;
214;f27_1_3;f27;1;3;filler;pseudo_manner/COM;grammatical;1;above;grammatical >> ?;condition 1 >> condition 3;36419;513141;25;;;;;;;;;;;;;;;;;;;;;;;;
214;f46_1_3;f46;1;3;filler;unrelated;grammatical;1;above;grammatical >> ?;condition 1 >> condition 3;14061;608266;30;;;;;;;;;;;;;;;;;;;;;;;;
214;f28_1_2;f28;1;2;filler;unrelated;grammatical;1;below;* >> grammatical;condition 2 >> condition 1;30740;708016;35;;;;;;;;;;;;;;;;;;;;;;;;
214;f38_1_3;f38;1;3;filler;unrelated;grammatical;1;below;? >> grammatical;condition 3 >> condition 1;11175;735280;37;;;;;;;;;;;;;;;;;;;;;;;;
214;f29_1_3;f29;1;3;filler;unrelated;grammatical;1;below;? >> grammatical;condition 3 >> condition 1;16556;795629;40;;;;;;;;;;;;;;;;;;;;;;;;
214;f47_1_2;f47;1;2;filler;unrelated;grammatical;1;above;grammatical >> *;condition 1 >> condition 2;11963;897379;45;;;;;;;;;;;;;;;;;;;;;;;;
214;f37_1_2;f37;1;2;filler;pseudo_CC/COM;grammatical;1;above;grammatical >> *;condition 1 >> condition 2;20893;951544;48;;;;;;;;;;;;;;;;;;;;;;;;
214;f41_1_3;f41;1;3;filler;unrelated (pseudo_manner);grammatical;1;below;? >> grammatical;condition 3 >> condition 1;18727;985042;50;;;;;;;;;;;;;;;;;;;;;;;;
214;f22_1_3;f22;1;3;filler;pseudo_windef;grammatical;1;above;grammatical >> ?;condition 1 >> condition 3;14894;1247129;65;;;;;;;;;;;;;;;;;;;;;;;;
214;f20_1_3;f20;1;3;filler;pseudo_windef;grammatical;1;below;? >> grammatical;condition 3 >> condition 1;21710;1305399;68;;;;;;;;;;;;;;;;;;;;;;;;
214;f23_1_3;f23;1;3;filler;pseudo_windef;grammatical;1;below;? >> grammatical;condition 3 >> condition 1;24465;1347373;70;;;;;;;;;;;;;;;;;;;;;;;;
219;f29_1_3;f29;1;3;filler;unrelated;grammatical;1;above;grammatical >> ?;condition 1 >> condition 3;11955;90797;9;;;;;;;;;;;;;;;;;;;;;;;;
219;f38_1_3;f38;1;3;filler;unrelated;grammatical;1;above;grammatical >> ?;condition 1 >> condition 3;8177;166310;16;;;;;;;;;;;;;;;;;;;;;;;;
219;f22_1_3;f22;1;3;filler;pseudo_windef;grammatical;1;above;grammatical >> ?;condition 1 >> condition 3;15280;238476;23;;;;;;;;;;;;;;;;;;;;;;;;
219;f37_1_2;f37;1;2;filler;pseudo_CC/COM;grammatical;1;below;* >> grammatical;condition 2 >> condition 1;7081;252976;25;;;;;;;;;;;;;;;;;;;;;;;;
219;f47_1_2;f47;1;2;filler;unrelated;grammatical;1;above;grammatical >> *;condition 1 >> condition 2;6680;268706;28;;;;;;;;;;;;;;;;;;;;;;;;
219;f27_1_3;f27;1;3;filler;pseudo_manner/COM;grammatical;1;above;grammatical >> ?;condition 1 >> condition 3;9604;289313;31;;;;;;;;;;;;;;;;;;;;;;;;
219;f30_1_3;f30;1;3;filler;unrelated;grammatical;1;below;? >> grammatical;condition 3 >> condition 1;10074;326368;36;;;;;;;;;;;;;;;;;;;;;;;;
219;f33_1_3;f33;1;3;filler;unrelated;?;3;above;? >> grammatical;condition 3 >> condition 1;5834;341716;38;;;;;;;;;;;;;;;;;;;;;;;;
219;f28_1_2;f28;1;2;filler;unrelated;grammatical;1;below;* >> grammatical;condition 2 >> condition 1;4076;462650;53;;;;;;;;;;;;;;;;;;;;;;;;
219;f20_1_3;f20;1;3;filler;pseudo_windef;grammatical;1;above;grammatical >> ?;condition 1 >> condition 3;7381;474013;55;;;;;;;;;;;;;;;;;;;;;;;;
219;f41_1_3;f41;1;3;filler;unrelated (pseudo_manner);grammatical;1;above;grammatical >> ?;condition 1 >> condition 3;7257;493979;58;;;;;;;;;;;;;;;;;;;;;;;;
219;f23_1_3;f23;1;3;filler;pseudo_windef;grammatical;1;above;grammatical >> ?;condition 1 >> condition 3;7639;542902;65;;;;;;;;;;;;;;;;;;;;;;;;
219;f46_1_3;f46;1;3;filler;unrelated;grammatical;1;above;grammatical >> ?;condition 1 >> condition 3;12223;563701;67;;;;;;;;;;;;;;;;;;;;;;;;
219;f43_1_3;f43;1;3;filler;unrelated;grammatical;1;above;grammatical >> ?;condition 1 >> condition 3;7706;590103;71;;;;;;;;;;;;;;;;;;;;;;;;
220;f41_1_3;f41;1;3;filler;unrelated (pseudo_manner);grammatical;1;above;grammatical >> ?;condition 1 >> condition 3;7496;65201;7;;;;;;;;;;;;;;;;;;;;;;;;
220;f46_1_3;f46;1;3;filler;unrelated;grammatical;1;below;? >> grammatical;condition 3 >> condition 1;5530;93330;11;;;;;;;;;;;;;;;;;;;;;;;;
220;f38_1_3;f38;1;3;filler;unrelated;grammatical;1;above;grammatical >> ?;condition 1 >> condition 3;4898;103826;13;;;;;;;;;;;;;;;;;;;;;;;;
220;f47_1_2;f47;1;2;filler;unrelated;grammatical;1;above;grammatical >> *;condition 1 >> condition 2;5085;131213;16;;;;;;;;;;;;;;;;;;;;;;;;
220;f20_1_3;f20;1;3;filler;pseudo_windef;grammatical;1;above;grammatical >> ?;condition 1 >> condition 3;10077;223392;24;;;;;;;;;;;;;;;;;;;;;;;;
220;f30_1_3;f30;1;3;filler;unrelated;grammatical;1;above;grammatical >> ?;condition 1 >> condition 3;8370;294931;34;;;;;;;;;;;;;;;;;;;;;;;;
220;f22_1_3;f22;1;3;filler;pseudo_windef;grammatical;1;below;? >> grammatical;condition 3 >> condition 1;4994;327103;37;;;;;;;;;;;;;;;;;;;;;;;;
220;f43_1_3;f43;1;3;filler;unrelated;grammatical;1;below;? >> grammatical;condition 3 >> condition 1;5548;371355;43;;;;;;;;;;;;;;;;;;;;;;;;
220;f23_1_3;f23;1;3;filler;pseudo_windef;grammatical;1;below;? >> grammatical;condition 3 >> condition 1;3645;399231;48;;;;;;;;;;;;;;;;;;;;;;;;
220;f33_1_3;f33;1;3;filler;unrelated;?;3;below;grammatical >> ?;condition 1 >> condition 3;5891;414387;51;;;;;;;;;;;;;;;;;;;;;;;;
220;f37_1_2;f37;1;2;filler;pseudo_CC/COM;grammatical;1;above;grammatical >> *;condition 1 >> condition 2;7342;430013;53;;;;;;;;;;;;;;;;;;;;;;;;
220;f27_1_3;f27;1;3;filler;pseudo_manner/COM;grammatical;1;above;grammatical >> ?;condition 1 >> condition 3;9403;472244;59;;;;;;;;;;;;;;;;;;;;;;;;
220;f28_1_2;f28;1;2;filler;unrelated;grammatical;1;above;grammatical >> *;condition 1 >> condition 2;11514;547591;67;;;;;;;;;;;;;;;;;;;;;;;;
220;f29_1_3;f29;1;3;filler;unrelated;grammatical;1;above;grammatical >> ?;condition 1 >> condition 3;10010;577334;71;;;;;;;;;;;;;;;;;;;;;;;;
222;f22_1_3;f22;1;3;filler;pseudo_windef;grammatical;1;below;? >> grammatical;condition 3 >> condition 1;10723;125227;9;;;;;;;;;;;;;;;;;;;;;;;;
222;f30_1_3;f30;1;3;filler;unrelated;grammatical;1;below;? >> grammatical;condition 3 >> condition 1;9055;153591;12;;;;;;;;;;;;;;;;;;;;;;;;
222;f37_1_2;f37;1;2;filler;pseudo_CC/COM;grammatical;1;below;* >> grammatical;condition 2 >> condition 1;11490;174156;14;;;;;;;;;;;;;;;;;;;;;;;;
222;f41_1_3;f41;1;3;filler;unrelated (pseudo_manner);grammatical;1;above;grammatical >> ?;condition 1 >> condition 3;11217;202449;16;;;;;;;;;;;;;;;;;;;;;;;;
222;f29_1_3;f29;1;3;filler;unrelated;grammatical;1;above;grammatical >> ?;condition 1 >> condition 3;10443;237289;20;;;;;;;;;;;;;;;;;;;;;;;;
222;f38_1_3;f38;1;3;filler;unrelated;grammatical;1;below;? >> grammatical;condition 3 >> condition 1;7617;268497;24;;;;;;;;;;;;;;;;;;;;;;;;
222;f20_1_3;f20;1;3;filler;pseudo_windef;grammatical;1;below;? >> grammatical;condition 3 >> condition 1;7841;283374;26;;;;;;;;;;;;;;;;;;;;;;;;
222;f27_1_3;f27;1;3;filler;pseudo_manner/COM;grammatical;1;below;? >> grammatical;condition 3 >> condition 1;10926;307230;28;;;;;;;;;;;;;;;;;;;;;;;;
222;f23_1_3;f23;1;3;filler;pseudo_windef;grammatical;1;above;grammatical >> ?;condition 1 >> condition 3;10350;466370;44;;;;;;;;;;;;;;;;;;;;;;;;
222;f33_1_3;f33;1;3;filler;unrelated;?;3;below;grammatical >> ?;condition 1 >> condition 3;8879;508357;49;;;;;;;;;;;;;;;;;;;;;;;;
222;f47_1_2;f47;1;2;filler;unrelated;grammatical;1;below;* >> grammatical;condition 2 >> condition 1;7199;534774;52;;;;;;;;;;;;;;;;;;;;;;;;
222;f28_1_2;f28;1;2;filler;unrelated;grammatical;1;above;grammatical >> *;condition 1 >> condition 2;6737;555973;56;;;;;;;;;;;;;;;;;;;;;;;;
222;f43_1_3;f43;1;3;filler;unrelated;grammatical;1;below;? >> grammatical;condition 3 >> condition 1;5509;618896;62;;;;;;;;;;;;;;;;;;;;;;;;
222;f46_1_3;f46;1;3;filler;unrelated;grammatical;1;above;grammatical >> ?;condition 1 >> condition 3;15926;704375;70;;;;;;;;;;;;;;;;;;;;;;;;
223;f33_1_3;f33;1;3;filler;unrelated;grammatical;1;below;? >> grammatical;condition 3 >> condition 1;8591;273218;22;;;;;;;;;;;;;;;;;;;;;;;;
223;f23_1_3;f23;1;3;filler;pseudo_windef;grammatical;1;below;? >> grammatical;condition 3 >> condition 1;7798;337562;28;;;;;;;;;;;;;;;;;;;;;;;;
223;f29_1_3;f29;1;3;filler;unrelated;grammatical;1;above;grammatical >> ?;condition 1 >> condition 3;15053;394307;32;;;;;;;;;;;;;;;;;;;;;;;;
223;f37_1_2;f37;1;2;filler;pseudo_CC/COM;grammatical;1;above;grammatical >> *;condition 1 >> condition 2;21031;453187;37;;;;;;;;;;;;;;;;;;;;;;;;
223;f41_1_3;f41;1;3;filler;unrelated (pseudo_manner);?;3;below;grammatical >> ?;condition 1 >> condition 3;9399;471603;39;;;;;;;;;;;;;;;;;;;;;;;;
223;f22_1_3;f22;1;3;filler;pseudo_windef;grammatical;1;below;? >> grammatical;condition 3 >> condition 1;7701;500916;42;;;;;;;;;;;;;;;;;;;;;;;;
223;f20_1_3;f20;1;3;filler;pseudo_windef;grammatical;1;below;? >> grammatical;condition 3 >> condition 1;10254;526035;44;;;;;;;;;;;;;;;;;;;;;;;;
223;f30_1_3;f30;1;3;filler;unrelated;grammatical;1;below;? >> grammatical;condition 3 >> condition 1;8967;605292;52;;;;;;;;;;;;;;;;;;;;;;;;
223;f27_1_3;f27;1;3;filler;pseudo_manner/COM;grammatical;1;above;grammatical >> ?;condition 1 >> condition 3;9094;635100;56;;;;;;;;;;;;;;;;;;;;;;;;
223;f47_1_2;f47;1;2;filler;unrelated;grammatical;1;above;grammatical >> *;condition 1 >> condition 2;10111;661845;59;;;;;;;;;;;;;;;;;;;;;;;;
223;f28_1_2;f28;1;2;filler;unrelated;grammatical;1;above;grammatical >> *;condition 1 >> condition 2;11390;682317;61;;;;;;;;;;;;;;;;;;;;;;;;
223;f43_1_3;f43;1;3;filler;unrelated;grammatical;1;above;grammatical >> ?;condition 1 >> condition 3;8990;702133;63;;;;;;;;;;;;;;;;;;;;;;;;
223;f38_1_3;f38;1;3;filler;unrelated;grammatical;1;above;grammatical >> ?;condition 1 >> condition 3;13191;723229;65;;;;;;;;;;;;;;;;;;;;;;;;
223;f46_1_3;f46;1;3;filler;unrelated;grammatical;1;below;? >> grammatical;condition 3 >> condition 1;7022;775309;70;;;;;;;;;;;;;;;;;;;;;;;;
224;f20_1_3;f20;1;3;filler;pseudo_windef;grammatical;1;above;grammatical >> ?;condition 1 >> condition 3;11999;126176;9;;;;;;;;;;;;;;;;;;;;;;;;
224;f41_1_3;f41;1;3;filler;unrelated (pseudo_manner);grammatical;1;above;grammatical >> ?;condition 1 >> condition 3;22054;202898;15;;;;;;;;;;;;;;;;;;;;;;;;
224;f43_1_3;f43;1;3;filler;unrelated;grammatical;1;below;? >> grammatical;condition 3 >> condition 1;10096;227354;17;;;;;;;;;;;;;;;;;;;;;;;;
224;f33_1_3;f33;1;3;filler;unrelated;?;3;below;grammatical >> ?;condition 1 >> condition 3;13593;280332;21;;;;;;;;;;;;;;;;;;;;;;;;
224;f47_1_2;f47;1;2;filler;unrelated;grammatical;1;below;* >> grammatical;condition 2 >> condition 1;9372;303003;23;;;;;;;;;;;;;;;;;;;;;;;;
224;f23_1_3;f23;1;3;filler;pseudo_windef;grammatical;1;below;? >> grammatical;condition 3 >> condition 1;6862;323066;25;;;;;;;;;;;;;;;;;;;;;;;;
224;f46_1_3;f46;1;3;filler;unrelated;grammatical;1;above;grammatical >> ?;condition 1 >> condition 3;11156;447545;34;;;;;;;;;;;;;;;;;;;;;;;;
224;f38_1_3;f38;1;3;filler;unrelated;grammatical;1;above;grammatical >> ?;condition 1 >> condition 3;13748;503462;38;;;;;;;;;;;;;;;;;;;;;;;;
224;f29_1_3;f29;1;3;filler;unrelated;grammatical;1;below;? >> grammatical;condition 3 >> condition 1;11807;621005;46;;;;;;;;;;;;;;;;;;;;;;;;
224;f27_1_3;f27;1;3;filler;pseudo_manner/COM;grammatical;1;above;grammatical >> ?;condition 1 >> condition 3;13141;655623;49;;;;;;;;;;;;;;;;;;;;;;;;
224;f28_1_2;f28;1;2;filler;unrelated;grammatical;1;above;grammatical >> *;condition 1 >> condition 2;10683;674708;51;;;;;;;;;;;;;;;;;;;;;;;;
224;f22_1_3;f22;1;3;filler;pseudo_windef;grammatical;1;above;grammatical >> ?;condition 1 >> condition 3;13300;749567;58;;;;;;;;;;;;;;;;;;;;;;;;
224;f30_1_3;f30;1;;filler;unrelated;grammatical;1;below;? >> grammatical;condition 3 >> condition 1;11036;783316;62;;;;;;;;;;;;;;;;;;;;;;;;
224;f37_1_2;f37;1;2;filler;pseudo_CC/COM;grammatical;1;below;* >> grammatical;condition 2 >> condition 1;13489;832446;67;;;;;;;;;;;;;;;;;;;;;;;;
225;f30_1_3;f30;1;3;filler;unrelated;grammatical;1;above;grammatical >> ?;condition 1 >> condition 3;13672;62627;6;;;;;;;;;;;;;;;;;;;;;;;;
225;f23_1_3;f23;1;3;filler;pseudo_windef;grammatical;1;above;grammatical >> ?;condition 1 >> condition 3;7146;93861;9;;;;;;;;;;;;;;;;;;;;;;;;
225;f38_1_3;f38;1;3;filler;unrelated;grammatical;1;above;grammatical >> ?;condition 1 >> condition 3;8745;178553;18;;;;;;;;;;;;;;;;;;;;;;;;
225;f22_1_3;f22;1;3;filler;pseudo_windef;grammatical;1;below;? >> grammatical;condition 3 >> condition 1;4928;289464;28;;;;;;;;;;;;;;;;;;;;;;;;
225;f29_1_3;f29;1;3;filler;unrelated;grammatical;1;above;grammatical >> ?;condition 1 >> condition 3;7208;353636;34;;;;;;;;;;;;;;;;;;;;;;;;
225;f28_1_2;f28;1;2;filler;unrelated;grammatical;1;below;* >> grammatical;condition 2 >> condition 1;6155;424548;40;;;;;;;;;;;;;;;;;;;;;;;;
225;f33_1_3;f33;1;3;filler;unrelated;?;3;above;? >> grammatical;condition 3 >> condition 1;10412;449102;43;;;;;;;;;;;;;;;;;;;;;;;;
225;f27_1_3;f27;1;3;filler;pseudo_manner/COM;grammatical;1;below;? >> grammatical;condition 3 >> condition 1;10527;468793;45;;;;;;;;;;;;;;;;;;;;;;;;
225;f41_1_3;f41;1;3;filler;unrelated (pseudo_manner);grammatical;1;below;? >> grammatical;condition 3 >> condition 1;11712;488143;47;;;;;;;;;;;;;;;;;;;;;;;;
225;f20_1_3;f20;1;3;filler;pseudo_windef;grammatical;1;below;? >> grammatical;condition 3 >> condition 1;5110;528423;52;;;;;;;;;;;;;;;;;;;;;;;;
225;f37_1_2;f37;1;2;filler;pseudo_CC/COM;grammatical;1;below;* >> grammatical;condition 2 >> condition 1;16451;560762;55;;;;;;;;;;;;;;;;;;;;;;;;
225;f43_1_3;f43;1;3;filler;unrelated;grammatical;1;below;? >> grammatical;condition 3 >> condition 1;5916;605466;60;;;;;;;;;;;;;;;;;;;;;;;;
225;f47_1_2;f47;1;2;filler;unrelated;grammatical;1;above;grammatical >> *;condition 1 >> condition 2;19283;634885;62;;;;;;;;;;;;;;;;;;;;;;;;
225;f46_1_3;f46;1;3;filler;unrelated;grammatical;1;below;? >> grammatical;condition 3 >> condition 1;5151;700992;69;;;;;;;;;;;;;;;;;;;;;;;;
226;f33_1_3;f33;1;3;filler;unrelated;grammatical;1;below;? >> grammatical;condition 3 >> condition 1;15263;47678;6;;;;;;;;;;;;;;;;;;;;;;;;
226;f28_1_2;f28;1;2;filler;unrelated;grammatical;1;above;grammatical >> *;condition 1 >> condition 2;5126;58259;8;;;;;;;;;;;;;;;;;;;;;;;;
226;f20_1_3;f20;1;3;filler;pseudo_windef;grammatical;1;below;? >> grammatical;condition 3 >> condition 1;4419;82183;13;;;;;;;;;;;;;;;;;;;;;;;;
226;f30_1_3;f30;1;3;filler;unrelated;grammatical;1;above;grammatical >> ?;condition 1 >> condition 3;6659;107239;16;;;;;;;;;;;;;;;;;;;;;;;;
226;f38_1_3;f38;1;3;filler;unrelated;grammatical;1;below;? >> grammatical;condition 3 >> condition 1;3465;129230;20;;;;;;;;;;;;;;;;;;;;;;;;
226;f22_1_3;f22;1;3;filler;pseudo_windef;grammatical;1;below;? >> grammatical;condition 3 >> condition 1;3965;172361;27;;;;;;;;;;;;;;;;;;;;;;;;
226;f37_1_2;f37;1;2;filler;pseudo_CC/COM;grammatical;1;above;grammatical >> *;condition 1 >> condition 2;3905;209660;34;;;;;;;;;;;;;;;;;;;;;;;;
226;f47_1_2;f47;1;2;filler;unrelated;grammatical;1;below;* >> grammatical;condition 2 >> condition 1;4307;258161;40;;;;;;;;;;;;;;;;;;;;;;;;
226;f46_1_3;f46;1;3;filler;unrelated;grammatical;1;below;? >> grammatical;condition 3 >> condition 1;4339;291954;46;;;;;;;;;;;;;;;;;;;;;;;;
226;f41_1_3;f41;1;3;filler;unrelated (pseudo_manner);grammatical;1;below;? >> grammatical;condition 3 >> condition 1;4358;344525;55;;;;;;;;;;;;;;;;;;;;;;;;
226;f43_1_3;f43;1;3;filler;unrelated;grammatical;1;above;grammatical >> ?;condition 1 >> condition 3;4229;355551;57;;;;;;;;;;;;;;;;;;;;;;;;
226;f23_1_3;f23;1;3;filler;pseudo_windef;grammatical;1;below;? >> grammatical;condition 3 >> condition 1;7598;390924;63;;;;;;;;;;;;;;;;;;;;;;;;
226;f29_1_3;f29;1;3;filler;unrelated;grammatical;1;above;grammatical >> ?;condition 1 >> condition 3;6280;419049;68;;;;;;;;;;;;;;;;;;;;;;;;
226;f27_1_3;f27;1;3;filler;pseudo_manner/COM;grammatical;1;below;? >> grammatical;condition 3 >> condition 1;4602;428524;70;;;;;;;;;;;;;;;;;;;;;;;;
228;f20_1_3;f20;1;3;filler;pseudo_windef;grammatical;1;below;? >> grammatical;condition 3 >> condition 1;5896;48556;6;;;;;;;;;;;;;;;;;;;;;;;;
228;f28_1_2;f28;1;2;filler;unrelated;grammatical;1;above;grammatical >> *;condition 1 >> condition 2;12397;147822;18;;;;;;;;;;;;;;;;;;;;;;;;
228;f23_1_3;f23;1;3;filler;pseudo_windef;grammatical;1;above;grammatical >> ?;condition 1 >> condition 3;6014;179255;22;;;;;;;;;;;;;;;;;;;;;;;;
228;f43_1_3;f43;1;3;filler;unrelated;grammatical;1;below;? >> grammatical;condition 3 >> condition 1;5447;259187;32;;;;;;;;;;;;;;;;;;;;;;;;
228;f22_1_3;f22;1;3;filler;pseudo_windef;grammatical;1;above;grammatical >> ?;condition 1 >> condition 3;7380;321620;38;;;;;;;;;;;;;;;;;;;;;;;;
228;f29_1_3;f29;1;3;filler;unrelated;grammatical;1;above;grammatical >> ?;condition 1 >> condition 3;7197;389219;47;;;;;;;;;;;;;;;;;;;;;;;;
228;f27_1_3;f27;1;3;filler;pseudo_manner/COM;grammatical;1;above;grammatical >> ?;condition 1 >> condition 3;6464;429402;53;;;;;;;;;;;;;;;;;;;;;;;;
228;f37_1_2;f37;1;2;filler;pseudo_CC/COM;grammatical;1;below;* >> grammatical;condition 2 >> condition 1;9064;452252;56;;;;;;;;;;;;;;;;;;;;;;;;
228;f47_1_2;f47;1;2;filler;unrelated;grammatical;1;above;grammatical >> *;condition 1 >> condition 2;6614;492618;62;;;;;;;;;;;;;;;;;;;;;;;;
228;f38_1_3;f38;1;3;filler;unrelated;grammatical;1;below;? >> grammatical;condition 3 >> condition 1;3513;502252;64;;;;;;;;;;;;;;;;;;;;;;;;
228;f30_1_3;f30;1;3;filler;unrelated;grammatical;1;below;? >> grammatical;condition 3 >> condition 1;4997;514119;66;;;;;;;;;;;;;;;;;;;;;;;;
228;f46_1_3;f46;1;3;filler;unrelated;grammatical;1;below;? >> grammatical;condition 3 >> condition 1;13497;540368;68;;;;;;;;;;;;;;;;;;;;;;;;
228;f41_1_3;f41;1;3;filler;unrelated (pseudo_manner);grammatical;1;above;grammatical >> ?;condition 1 >> condition 3;14613;563734;70;;;;;;;;;;;;;;;;;;;;;;;;
228;f33_1_3;f33;1;3;filler;unrelated;?;3;above;? >> grammatical;condition 3 >> condition 1;11381;575118;71;;;;;;;;;;;;;;;;;;;;;;;;
229;f22_1_3;f22;1;3;filler;pseudo_windef;grammatical;1;above;grammatical >> ?;condition 1 >> condition 3;12148;112215;6;;;;;;;;;;;;;;;;;;;;;;;;
229;f27_1_3;f27;1;3;filler;pseudo_manner/COM;grammatical;1;above;grammatical >> ?;condition 1 >> condition 3;25499;302432;14;;;;;;;;;;;;;;;;;;;;;;;;
229;f43_1_3;f43;1;3;filler;unrelated;grammatical;1;above;grammatical >> ?;condition 1 >> condition 3;11572;462892;18;;;;;;;;;;;;;;;;;;;;;;;;
229;f29_1_3;f29;1;3;filler;unrelated;grammatical;1;below;? >> grammatical;condition 3 >> condition 1;31516;694511;29;;;;;;;;;;;;;;;;;;;;;;;;
229;f20_1_3;f20;1;3;filler;pseudo_windef;grammatical;1;above;grammatical >> ?;condition 1 >> condition 3;27536;763289;33;;;;;;;;;;;;;;;;;;;;;;;;
229;f37_1_2;f37;1;2;filler;pseudo_CC/COM;grammatical;1;below;* >> grammatical;condition 2 >> condition 1;17409;837817;37;;;;;;;;;;;;;;;;;;;;;;;;
229;f41_1_3;f41;1;3;filler;unrelated (pseudo_manner);?;3;below;grammatical >> ?;condition 1 >> condition 3;12413;865086;39;;;;;;;;;;;;;;;;;;;;;;;;
229;f46_1_3;f46;1;3;filler;unrelated;grammatical;1;below;? >> grammatical;condition 3 >> condition 1;22767;927471;42;;;;;;;;;;;;;;;;;;;;;;;;
229;f33_1_3;f33;1;3;filler;unrelated;?;3;above;? >> grammatical;condition 3 >> condition 1;27803;1055518;47;;;;;;;;;;;;;;;;;;;;;;;;
229;f23_1_3;f23;1;3;filler;pseudo_windef;grammatical;1;above;grammatical >> ?;condition 1 >> condition 3;15187;1286740;57;;;;;;;;;;;;;;;;;;;;;;;;
229;f28_1_2;f28;1;2;filler;unrelated;grammatical;1;below;* >> grammatical;condition 2 >> condition 1;16785;1318275;59;;;;;;;;;;;;;;;;;;;;;;;;
229;f47_1_2;f47;1;2;filler;unrelated;grammatical;1;above;grammatical >> *;condition 1 >> condition 2;20478;1473597;66;;;;;;;;;;;;;;;;;;;;;;;;
229;f38_1_3;f38;1;3;filler;unrelated;grammatical;1;above;grammatical >> ?;condition 1 >> condition 3;9841;1537679;70;;;;;;;;;;;;;;;;;;;;;;;;
229;f30_1_3;f30;1;3;filler;unrelated;grammatical;1;below;? >> grammatical;condition 3 >> condition 1;21140;1558830;71;;;;;;;;;;;;;;;;;;;;;;;;
231;f43_1_3;f43;1;3;filler;unrelated;grammatical;1;below;? >> grammatical;condition 3 >> condition 1;6958;68528;6;;;;;;;;;;;;;;;;;;;;;;;;
231;f30_1_3;f30;1;3;filler;unrelated;grammatical;1;below;? >> grammatical;condition 3 >> condition 1;9200;95981;9;;;;;;;;;;;;;;;;;;;;;;;;
231;f47_1_2;f47;1;2;filler;unrelated;grammatical;1;above;grammatical >> *;condition 1 >> condition 2;9007;134033;13;;;;;;;;;;;;;;;;;;;;;;;;
231;f28_1_2;f28;1;2;filler;unrelated;grammatical;1;above;grammatical >> *;condition 1 >> condition 2;9684;182815;15;;;;;;;;;;;;;;;;;;;;;;;;
231;f29_1_3;f29;1;3;filler;unrelated;grammatical;1;above;grammatical >> ?;condition 1 >> condition 3;13927;204803;17;;;;;;;;;;;;;;;;;;;;;;;;
231;f41_1_3;f41;1;3;filler;unrelated (pseudo_manner);grammatical;1;above;grammatical >> ?;condition 1 >> condition 3;11015;263238;22;;;;;;;;;;;;;;;;;;;;;;;;
231;f38_1_3;f38;1;3;filler;unrelated;grammatical;1;above;grammatical >> ?;condition 1 >> condition 3;6834;295464;25;;;;;;;;;;;;;;;;;;;;;;;;
231;f46_1_3;f46;1;3;filler;unrelated;grammatical;1;below;? >> grammatical;condition 3 >> condition 1;11774;504131;43;;;;;;;;;;;;;;;;;;;;;;;;
231;f27_1_3;f27;1;3;filler;pseudo_manner/COM;grammatical;1;below;? >> grammatical;condition 3 >> condition 1;19395;647179;53;;;;;;;;;;;;;;;;;;;;;;;;
231;f23_1_3;f23;1;3;filler;pseudo_windef;grammatical;1;above;grammatical >> ?;condition 1 >> condition 3;9488;670531;55;;;;;;;;;;;;;;;;;;;;;;;;
231;f22_1_3;f22;1;3;filler;pseudo_windef;grammatical;1;below;? >> grammatical;condition 3 >> condition 1;4761;750344;60;;;;;;;;;;;;;;;;;;;;;;;;
231;f20_1_3;f20;1;3;filler;pseudo_windef;grammatical;1;above;grammatical >> ?;condition 1 >> condition 3;9790;789997;65;;;;;;;;;;;;;;;;;;;;;;;;
231;f37_1_2;f37;1;2;filler;pseudo_CC/COM;grammatical;1;above;grammatical >> *;condition 1 >> condition 2;10163;837737;70;;;;;;;;;;;;;;;;;;;;;;;;
231;f33_1_3;f33;1;3;filler;unrelated;?;3;below;grammatical >> ?;condition 1 >> condition 3;8702;846440;71;;;;;;;;;;;;;;;;;;;;;;;;
232;f28_1_2;f28;1;2;filler;unrelated;grammatical;1;below;* >> grammatical;condition 2 >> condition 1;4154;56462;8;;;;;;;;;;;;;;;;;;;;;;;;
232;f43_1_3;f43;1;3;filler;unrelated;grammatical;1;above;grammatical >> ?;condition 1 >> condition 3;5009;139704;18;;;;;;;;;;;;;;;;;;;;;;;;
232;f30_1_3;f30;1;3;filler;unrelated;grammatical;1;above;grammatical >> ?;condition 1 >> condition 3;8972;158531;21;;;;;;;;;;;;;;;;;;;;;;;;
232;f46_1_3;f46;1;3;filler;unrelated;?;3;above;? >> grammatical;condition 3 >> condition 1;10016;193619;26;;;;;;;;;;;;;;;;;;;;;;;;
232;f23_1_3;f23;1;3;filler;pseudo_windef;grammatical;1;above;grammatical >> ?;condition 1 >> condition 3;5887;218446;30;;;;;;;;;;;;;;;;;;;;;;;;
232;f47_1_2;f47;1;2;filler;unrelated;grammatical;1;below;* >> grammatical;condition 2 >> condition 1;3793;233716;33;;;;;;;;;;;;;;;;;;;;;;;;
232;f41_1_3;f41;1;3;filler;unrelated (pseudo_manner);grammatical;1;below;? >> grammatical;condition 3 >> condition 1;22632;263466;35;;;;;;;;;;;;;;;;;;;;;;;;
232;f22_1_3;f22;1;3;filler;pseudo_windef;grammatical;1;above;grammatical >> ?;condition 1 >> condition 3;6807;324258;45;;;;;;;;;;;;;;;;;;;;;;;;
232;f33_1_3;f33;1;3;filler;unrelated;grammatical;1;above;grammatical >> ?;condition 1 >> condition 3;6335;340916;49;;;;;;;;;;;;;;;;;;;;;;;;
232;f38_1_3;f38;1;3;filler;unrelated;grammatical;1;above;grammatical >> ?;condition 1 >> condition 3;7964;366747;54;;;;;;;;;;;;;;;;;;;;;;;;
232;f20_1_3;f20;1;3;filler;pseudo_windef;grammatical;1;above;grammatical >> ?;condition 1 >> condition 3;6524;381869;56;;;;;;;;;;;;;;;;;;;;;;;;
232;f37_1_2;f37;1;2;filler;pseudo_CC/COM;grammatical;1;above;grammatical >> *;condition 1 >> condition 2;5545;461391;68;;;;;;;;;;;;;;;;;;;;;;;;
232;f29_1_3;f29;1;3;filler;unrelated;grammatical;1;above;grammatical >> ?;condition 1 >> condition 3;6942;473041;70;;;;;;;;;;;;;;;;;;;;;;;;
232;f27_1_3;f27;1;3;filler;pseudo_manner/COM;grammatical;1;above;grammatical >> ?;condition 1 >> condition 3;6373;479419;71;;;;;;;;;;;;;;;;;;;;;;;;
233;f43_1_3;f43;1;3;filler;unrelated;grammatical;1;above;grammatical >> ?;condition 1 >> condition 3;8877;128673;10;;;;;;;;;;;;;;;;;;;;;;;;
233;f46_1_3;f46;1;3;filler;unrelated;grammatical;1;above;grammatical >> ?;condition 1 >> condition 3;16755;262408;18;;;;;;;;;;;;;;;;;;;;;;;;
233;f29_1_3;f29;1;3;filler;unrelated;grammatical;1;below;? >> grammatical;condition 3 >> condition 1;8678;287299;20;;;;;;;;;;;;;;;;;;;;;;;;
233;f23_1_3;f23;1;3;filler;pseudo_windef;grammatical;1;below;? >> grammatical;condition 3 >> condition 1;6683;372153;27;;;;;;;;;;;;;;;;;;;;;;;;
233;f28_1_2;f28;1;2;filler;unrelated;grammatical;1;above;grammatical >> *;condition 1 >> condition 2;9448;400407;30;;;;;;;;;;;;;;;;;;;;;;;;
233;f30_1_3;f30;1;3;filler;unrelated;grammatical;1;below;? >> grammatical;condition 3 >> condition 1;7842;460757;36;;;;;;;;;;;;;;;;;;;;;;;;
233;f27_1_3;f27;1;3;filler;pseudo_manner/COM;grammatical;1;below;? >> grammatical;condition 3 >> condition 1;7626;480630;39;;;;;;;;;;;;;;;;;;;;;;;;
233;f22_1_3;f22;1;3;filler;pseudo_windef;grammatical;1;above;grammatical >> ?;condition 1 >> condition 3;11331;543919;44;;;;;;;;;;;;;;;;;;;;;;;;
233;f37_1_2;f37;1;2;filler;pseudo_CC/COM;grammatical;1;above;grammatical >> *;condition 1 >> condition 2;8525;578355;47;;;;;;;;;;;;;;;;;;;;;;;;
233;f47_1_2;f47;1;2;filler;unrelated;grammatical;1;below;* >> grammatical;condition 2 >> condition 1;6796;666078;56;;;;;;;;;;;;;;;;;;;;;;;;
233;f41_1_3;f41;1;3;filler;unrelated (pseudo_manner);grammatical;1;below;? >> grammatical;condition 3 >> condition 1;9866;728868;61;;;;;;;;;;;;;;;;;;;;;;;;
233;f20_1_3;f20;1;3;filler;pseudo_windef;grammatical;1;below;? >> grammatical;condition 3 >> condition 1;5621;750065;64;;;;;;;;;;;;;;;;;;;;;;;;
233;f38_1_3;f38;1;3;filler;unrelated;grammatical;1;above;grammatical >> ?;condition 1 >> condition 3;7942;769160;66;;;;;;;;;;;;;;;;;;;;;;;;
233;f33_1_3;f33;1;3;filler;unrelated;?;3;above;? >> grammatical;condition 3 >> condition 1;25905;817959;69;;;;;;;;;;;;;;;;;;;;;;;;
234;f29_1_3;f29;1;3;filler;unrelated;grammatical;1;above;grammatical >> ?;condition 1 >> condition 3;5665;67367;8;;;;;;;;;;;;;;;;;;;;;;;;
234;f46_1_3;f46;1;3;filler;unrelated;grammatical;1;above;grammatical >> ?;condition 1 >> condition 3;8349;82650;10;;;;;;;;;;;;;;;;;;;;;;;;
234;f38_1_3;f38;1;3;filler;unrelated;grammatical;1;below;? >> grammatical;condition 3 >> condition 1;3449;97934;12;;;;;;;;;;;;;;;;;;;;;;;;
234;f27_1_3;f27;1;3;filler;pseudo_manner/COM;?;3;below;grammatical >> ?;condition 1 >> condition 3;6765;109052;14;;;;;;;;;;;;;;;;;;;;;;;;
234;f43_1_3;f43;1;3;filler;unrelated;grammatical;1;below;? >> grammatical;condition 3 >> condition 1;2898;134437;20;;;;;;;;;;;;;;;;;;;;;;;;
234;f23_1_3;f23;1;3;filler;pseudo_windef;grammatical;1;above;grammatical >> ?;condition 1 >> condition 3;9666;172439;25;;;;;;;;;;;;;;;;;;;;;;;;
234;f30_1_3;f30;1;3;filler;unrelated;grammatical;1;below;? >> grammatical;condition 3 >> condition 1;5598;183490;27;;;;;;;;;;;;;;;;;;;;;;;;
234;f41_1_3;f41;1;3;filler;unrelated (pseudo_manner);grammatical;1;below;? >> grammatical;condition 3 >> condition 1;7882;273378;38;;;;;;;;;;;;;;;;;;;;;;;;
234;f28_1_2;f28;1;2;filler;unrelated;grammatical;1;below;* >> grammatical;condition 2 >> condition 1;6533;320181;46;;;;;;;;;;;;;;;;;;;;;;;;
234;f20_1_3;f20;1;3;filler;pseudo_windef;grammatical;1;below;? >> grammatical;condition 3 >> condition 1;4149;331332;48;;;;;;;;;;;;;;;;;;;;;;;;
234;f22_1_3;f22;1;3;filler;pseudo_windef;grammatical;1;above;grammatical >> ?;condition 1 >> condition 3;8016;383168;55;;;;;;;;;;;;;;;;;;;;;;;;
234;f47_1_2;f47;1;2;filler;unrelated;grammatical;1;above;grammatical >> *;condition 1 >> condition 2;12782;497382;66;;;;;;;;;;;;;;;;;;;;;;;;
234;f33_1_3;f33;1;3;filler;unrelated;?;3;above;? >> grammatical;condition 3 >> condition 1;5398;510964;68;;;;;;;;;;;;;;;;;;;;;;;;
234;f37_1_2;f37;1;2;filler;pseudo_CC/COM;grammatical;1;below;* >> grammatical;condition 2 >> condition 1;5165;529215;70;;;;;;;;;;;;;;;;;;;;;;;;
236;f38_1_3;f38;1;3;filler;unrelated;grammatical;1;above;grammatical >> ?;condition 1 >> condition 3;5354;61926;7;;;;;;;;;;;;;;;;;;;;;;;;
236;f23_1_3;f23;1;3;filler;pseudo_windef;grammatical;1;below;? >> grammatical;condition 3 >> condition 1;4196;103028;13;;;;;;;;;;;;;;;;;;;;;;;;
236;f46_1_3;f46;1;3;filler;unrelated;grammatical;1;above;grammatical >> ?;condition 1 >> condition 3;19356;132730;15;;;;;;;;;;;;;;;;;;;;;;;;
236;f27_1_3;f27;1;3;filler;pseudo_manner/COM;grammatical;1;above;grammatical >> ?;condition 1 >> condition 3;5308;173165;21;;;;;;;;;;;;;;;;;;;;;;;;
236;f41_1_3;f41;1;3;filler;unrelated (pseudo_manner);grammatical;1;above;grammatical >> ?;condition 1 >> condition 3;5025;182705;23;;;;;;;;;;;;;;;;;;;;;;;;
236;f29_1_3;f29;1;3;filler;unrelated;grammatical;1;above;grammatical >> ?;condition 1 >> condition 3;5750;198673;25;;;;;;;;;;;;;;;;;;;;;;;;
236;f20_1_3;f20;1;3;filler;pseudo_windef;grammatical;1;below;? >> grammatical;condition 3 >> condition 1;5703;221014;29;;;;;;;;;;;;;;;;;;;;;;;;
236;f47_1_2;f47;1;2;filler;unrelated;grammatical;1;above;grammatical >> *;condition 1 >> condition 2;13504;253024;31;;;;;;;;;;;;;;;;;;;;;;;;
236;f33_1_3;f33;1;3;filler;unrelated;?;3;below;grammatical >> ?;condition 1 >> condition 3;6813;352115;49;;;;;;;;;;;;;;;;;;;;;;;;
236;f37_1_2;f37;1;2;filler;pseudo_CC/COM;grammatical;1;above;grammatical >> *;condition 1 >> condition 2;6123;380954;53;;;;;;;;;;;;;;;;;;;;;;;;
236;f43_1_3;f43;1;3;filler;unrelated;grammatical;1;below;? >> grammatical;condition 3 >> condition 1;3963;394440;56;;;;;;;;;;;;;;;;;;;;;;;;
236;f30_1_3;f30;1;3;filler;unrelated;grammatical;1;below;? >> grammatical;condition 3 >> condition 1;6992;448443;63;;;;;;;;;;;;;;;;;;;;;;;;
236;f28_1_2;f28;1;2;filler;unrelated;grammatical;1;below;* >> grammatical;condition 2 >> condition 1;5589;477362;67;;;;;;;;;;;;;;;;;;;;;;;;
236;f22_1_3;f22;1;3;filler;pseudo_windef;grammatical;1;below;? >> grammatical;condition 3 >> condition 1;5398;503426;71;;;;;;;;;;;;;;;;;;;;;;;;
237;f43_1_3;f43;1;3;filler;unrelated;grammatical;1;below;? >> grammatical;condition 3 >> condition 1;8754;102513;7;;;;;;;;;;;;;;;;;;;;;;;;
237;f47_1_2;f47;1;2;filler;unrelated;grammatical;1;above;grammatical >> *;condition 1 >> condition 2;13484;274813;16;;;;;;;;;;;;;;;;;;;;;;;;
237;f20_1_3;f20;1;3;filler;pseudo_windef;grammatical;1;below;? >> grammatical;condition 3 >> condition 1;9818;320431;21;;;;;;;;;;;;;;;;;;;;;;;;
237;f38_1_3;f38;1;3;filler;unrelated;grammatical;1;below;? >> grammatical;condition 3 >> condition 1;5870;336040;23;;;;;;;;;;;;;;;;;;;;;;;;
237;f30_1_3;f30;1;3;filler;unrelated;grammatical;1;above;grammatical >> ?;condition 1 >> condition 3;9433;359437;25;;;;;;;;;;;;;;;;;;;;;;;;
237;f28_1_2;f28;1;2;filler;unrelated;grammatical;1;below;* >> grammatical;condition 2 >> condition 1;10381;437985;30;;;;;;;;;;;;;;;;;;;;;;;;
237;f41_1_3;f41;1;3;filler;unrelated (pseudo_manner);grammatical;1;above;grammatical >> ?;condition 1 >> condition 3;16707;466285;32;;;;;;;;;;;;;;;;;;;;;;;;
237;f27_1_3;f27;1;3;filler;pseudo_manner/COM;grammatical;1;above;grammatical >> ?;condition 1 >> condition 3;9113;538651;40;;;;;;;;;;;;;;;;;;;;;;;;
237;f22_1_3;f22;1;3;filler;pseudo_windef;grammatical;1;below;? >> grammatical;condition 3 >> condition 1;7683;635565;49;;;;;;;;;;;;;;;;;;;;;;;;
237;f46_1_3;f46;1;3;filler;unrelated;grammatical;1;above;grammatical >> ?;condition 1 >> condition 3;7537;701085;55;;;;;;;;;;;;;;;;;;;;;;;;
237;f33_1_3;f33;1;3;filler;unrelated;grammatical;1;below;? >> grammatical;condition 3 >> condition 1;7411;734339;58;;;;;;;;;;;;;;;;;;;;;;;;
237;f29_1_3;f29;1;3;filler;unrelated;grammatical;1;below;? >> grammatical;condition 3 >> condition 1;16671;798621;63;;;;;;;;;;;;;;;;;;;;;;;;
237;f23_1_3;f23;1;3;filler;pseudo_windef;grammatical;1;above;grammatical >> ?;condition 1 >> condition 3;6963;825993;66;;;;;;;;;;;;;;;;;;;;;;;;
237;f37_1_2;f37;1;2;filler;pseudo_CC/COM;grammatical;1;above;grammatical >> *;condition 1 >> condition 2;13827;856729;69;;;;;;;;;;;;;;;;;;;;;;;;
238;f20_1_3;f20;1;3;filler;pseudo_windef;grammatical;1;above;grammatical >> ?;condition 1 >> condition 3;5133;39304;6;;;;;;;;;;;;;;;;;;;;;;;;
238;f46_1_3;f46;1;3;filler;unrelated;grammatical;1;above;grammatical >> ?;condition 1 >> condition 3;9218;85783;11;;;;;;;;;;;;;;;;;;;;;;;;
238;f28_1_2;f28;1;2;filler;unrelated;grammatical;1;below;* >> grammatical;condition 2 >> condition 1;5301;270363;33;;;;;;;;;;;;;;;;;;;;;;;;
238;f37_1_2;f37;1;2;filler;pseudo_CC/COM;grammatical;1;above;grammatical >> *;condition 1 >> condition 2;27105;371223;41;;;;;;;;;;;;;;;;;;;;;;;;
238;f22_1_3;f22;1;3;filler;pseudo_windef;grammatical;1;below;? >> grammatical;condition 3 >> condition 1;4202;395186;43;;;;;;;;;;;;;;;;;;;;;;;;
238;f41_1_3;f41;1;3;filler;unrelated (pseudo_manner);grammatical;1;above;grammatical >> ?;condition 1 >> condition 3;5567;451824;48;;;;;;;;;;;;;;;;;;;;;;;;
238;f33_1_3;f33;1;3;filler;unrelated;?;3;below;grammatical >> ?;condition 1 >> condition 3;8418;472996;51;;;;;;;;;;;;;;;;;;;;;;;;
238;f43_1_3;f43;1;3;filler;unrelated;grammatical;1;above;grammatical >> ?;condition 1 >> condition 3;3882;496385;54;;;;;;;;;;;;;;;;;;;;;;;;
238;f47_1_2;f47;1;2;filler;unrelated;grammatical;1;above;grammatical >> *;condition 1 >> condition 2;7317;523209;58;;;;;;;;;;;;;;;;;;;;;;;;
238;f27_1_3;f27;1;3;filler;pseudo_manner/COM;grammatical;1;above;grammatical >> ?;condition 1 >> condition 3;15553;565604;63;;;;;;;;;;;;;;;;;;;;;;;;
238;f23_1_3;f23;1;3;filler;pseudo_windef;grammatical;1;above;grammatical >> ?;condition 1 >> condition 3;6103;582645;66;;;;;;;;;;;;;;;;;;;;;;;;
238;f30_1_3;f30;1;3;filler;unrelated;grammatical;1;below;? >> grammatical;condition 3 >> condition 1;5219;593001;68;;;;;;;;;;;;;;;;;;;;;;;;
238;f38_1_3;f38;1;3;filler;unrelated;grammatical;1;below;? >> grammatical;condition 3 >> condition 1;3417;601755;70;;;;;;;;;;;;;;;;;;;;;;;;
238;f29_1_3;f29;1;3;filler;unrelated;grammatical;1;below;? >> grammatical;condition 3 >> condition 1;7752;609509;71;;;;;;;;;;;;;;;;;;;;;;;;
239;f29_1_3;f29;1;3;filler;unrelated;grammatical;1;below;? >> grammatical;condition 3 >> condition 1;12092;80115;9;;;;;;;;;;;;;;;;;;;;;;;;
239;f27_1_3;f27;1;3;filler;pseudo_manner/COM;grammatical;1;below;? >> grammatical;condition 3 >> condition 1;13493;118736;12;;;;;;;;;;;;;;;;;;;;;;;;
239;f22_1_3;f22;1;3;filler;pseudo_windef;grammatical;1;below;? >> grammatical;condition 3 >> condition 1;11310;141881;14;;;;;;;;;;;;;;;;;;;;;;;;
239;f46_1_3;f46;1;3;filler;unrelated;grammatical;1;below;? >> grammatical;condition 3 >> condition 1;6192;159196;16;;;;;;;;;;;;;;;;;;;;;;;;
239;f43_1_3;f43;1;3;filler;unrelated;grammatical;1;below;? >> grammatical;condition 3 >> condition 1;4874;201780;21;;;;;;;;;;;;;;;;;;;;;;;;
239;f37_1_2;f37;1;2;filler;pseudo_CC/COM;grammatical;1;below;* >> grammatical;condition 2 >> condition 1;7658;266946;29;;;;;;;;;;;;;;;;;;;;;;;;
239;f20_1_3;f20;1;3;filler;pseudo_windef;grammatical;1;below;? >> grammatical;condition 3 >> condition 1;6663;306154;33;;;;;;;;;;;;;;;;;;;;;;;;
239;f23_1_3;f23;1;3;filler;pseudo_windef;grammatical;1;above;grammatical >> ?;condition 1 >> condition 3;6542;351338;38;;;;;;;;;;;;;;;;;;;;;;;;
239;f28_1_2;f28;1;2;filler;unrelated;grammatical;1;below;* >> grammatical;condition 2 >> condition 1;6475;405635;44;;;;;;;;;;;;;;;;;;;;;;;;
239;f41_1_3;f41;1;3;filler;unrelated (pseudo_manner);grammatical;1;below;? >> grammatical;condition 3 >> condition 1;7083;469975;51;;;;;;;;;;;;;;;;;;;;;;;;
239;f47_1_2;f47;1;2;filler;unrelated;grammatical;1;above;grammatical >> *;condition 1 >> condition 2;6692;544331;62;;;;;;;;;;;;;;;;;;;;;;;;
239;f38_1_3;f38;1;3;filler;unrelated;grammatical;1;above;grammatical >> ?;condition 1 >> condition 3;6426;590357;68;;;;;;;;;;;;;;;;;;;;;;;;
239;f30_1_3;f30;1;3;filler;unrelated;grammatical;1;below;? >> grammatical;condition 3 >> condition 1;7606;608148;70;;;;;;;;;;;;;;;;;;;;;;;;
239;f33_1_3;f33;1;3;filler;unrelated;?;3;below;grammatical >> ?;condition 1 >> condition 3;9726;617877;71;;;;;;;;;;;;;;;;;;;;;;;;
240;f37_1_2;f37;1;2;filler;pseudo_CC/COM;grammatical;1;below;* >> grammatical;condition 2 >> condition 1;12223;137889;10;;;;;;;;;;;;;;;;;;;;;;;;
240;f46_1_3;f46;1;3;filler;unrelated;grammatical;1;above;grammatical >> ?;condition 1 >> condition 3;21052;344092;25;;;;;;;;;;;;;;;;;;;;;;;;
240;f28_1_2;f28;1;2;filler;unrelated;grammatical;1;below;* >> grammatical;condition 2 >> condition 1;14531;405963;31;;;;;;;;;;;;;;;;;;;;;;;;
240;f27_1_3;f27;1;3;filler;pseudo_manner/COM;grammatical;1;above;grammatical >> ?;condition 1 >> condition 3;18949;464416;36;;;;;;;;;;;;;;;;;;;;;;;;
240;f47_1_2;f47;1;2;filler;unrelated;grammatical;1;above;grammatical >> *;condition 1 >> condition 2;5564;476939;38;;;;;;;;;;;;;;;;;;;;;;;;
240;f23_1_3;f23;1;3;filler;pseudo_windef;grammatical;1;above;grammatical >> ?;condition 1 >> condition 3;6634;498478;41;;;;;;;;;;;;;;;;;;;;;;;;
240;f20_1_3;f20;1;3;filler;pseudo_windef;grammatical;1;above;grammatical >> ?;condition 1 >> condition 3;7148;516120;43;;;;;;;;;;;;;;;;;;;;;;;;
240;f30_1_3;f30;1;3;filler;unrelated;grammatical;1;above;grammatical >> ?;condition 1 >> condition 3;12245;539117;46;;;;;;;;;;;;;;;;;;;;;;;;
240;f33_1_3;f33;1;3;filler;unrelated;?;3;below;grammatical >> ?;condition 1 >> condition 3;12776;562451;48;;;;;;;;;;;;;;;;;;;;;;;;
240;f29_1_3;f29;1;3;filler;unrelated;grammatical;1;below;? >> grammatical;condition 3 >> condition 1;21902;602927;51;;;;;;;;;;;;;;;;;;;;;;;;
240;f38_1_3;f38;1;3;filler;unrelated;grammatical;1;above;grammatical >> ?;condition 1 >> condition 3;6908;621246;54;;;;;;;;;;;;;;;;;;;;;;;;
240;f22_1_3;f22;1;3;filler;pseudo_windef;grammatical;1;below;? >> grammatical;condition 3 >> condition 1;6546;739844;68;;;;;;;;;;;;;;;;;;;;;;;;
240;f43_1_3;f43;1;3;filler;unrelated;grammatical;1;below;? >> grammatical;condition 3 >> condition 1;4342;749335;70;;;;;;;;;;;;;;;;;;;;;;;;
240;f41_1_3;f41;1;3;filler;unrelated (pseudo_manner);grammatical;1;below;? >> grammatical;condition 3 >> condition 1;22740;772077;71;;;;;;;;;;;;;;;;;;;;;;;;
241;f27_1_3;f27;1;3;filler;pseudo_manner/COM;grammatical;1;below;? >> grammatical;condition 3 >> condition 1;36264;256942;8;;;;;;;;;;;;;;;;;;;;;;;;
241;f33_1_3;f33;1;3;filler;unrelated;grammatical;1;above;grammatical >> ?;condition 1 >> condition 3;18763;297977;10;;;;;;;;;;;;;;;;;;;;;;;;
241;f41_1_3;f41;1;3;filler;unrelated (pseudo_manner);grammatical;1;below;? >> grammatical;condition 3 >> condition 1;18442;427579;15;;;;;;;;;;;;;;;;;;;;;;;;
241;f46_1_3;f46;1;3;filler;unrelated;grammatical;1;above;grammatical >> ?;condition 1 >> condition 3;18948;558819;21;;;;;;;;;;;;;;;;;;;;;;;;
241;f37_1_2;f37;1;2;filler;pseudo_CC/COM;grammatical;1;below;* >> grammatical;condition 2 >> condition 1;29201;693421;26;;;;;;;;;;;;;;;;;;;;;;;;
241;f30_1_3;f30;1;3;filler;unrelated;grammatical;1;below;? >> grammatical;condition 3 >> condition 1;72165;906403;33;;;;;;;;;;;;;;;;;;;;;;;;
241;f28_1_2;f28;1;2;filler;unrelated;grammatical;1;below;* >> grammatical;condition 2 >> condition 1;11082;1018940;39;;;;;;;;;;;;;;;;;;;;;;;;
241;f23_1_3;f23;1;3;filler;pseudo_windef;grammatical;1;below;? >> grammatical;condition 3 >> condition 1;11760;1057543;42;;;;;;;;;;;;;;;;;;;;;;;;
241;f47_1_2;f47;1;2;filler;unrelated;grammatical;1;above;grammatical >> *;condition 1 >> condition 2;11098;1193235;50;;;;;;;;;;;;;;;;;;;;;;;;
241;f20_1_3;f20;1;3;filler;pseudo_windef;grammatical;1;below;? >> grammatical;condition 3 >> condition 1;11336;1219746;52;;;;;;;;;;;;;;;;;;;;;;;;
241;f22_1_3;f22;1;3;filler;pseudo_windef;grammatical;1;above;grammatical >> ?;condition 1 >> condition 3;10265;1499709;58;;;;;;;;;;;;;;;;;;;;;;;;
241;f38_1_3;f38;1;3;filler;unrelated;grammatical;1;above;grammatical >> ?;condition 1 >> condition 3;6062;1602373;64;;;;;;;;;;;;;;;;;;;;;;;;
241;f29_1_3;f29;1;3;filler;unrelated;?;3;above;? >> grammatical;condition 3 >> condition 1;12965;1625880;66;;;;;;;;;;;;;;;;;;;;;;;;
241;f43_1_3;f43;1;3;filler;unrelated;grammatical;1;above;grammatical >> ?;condition 1 >> condition 3;5680;1663101;70;;;;;;;;;;;;;;;;;;;;;;;;
244;f41_1_3;f41;1;3;filler;unrelated (pseudo_manner);grammatical;1;above;grammatical >> ?;condition 1 >> condition 3;9976;126500;10;;;;;;;;;;;;;;;;;;;;;;;;
244;f46_1_3;f46;1;3;filler;unrelated;grammatical;1;below;? >> grammatical;condition 3 >> condition 1;14621;179442;16;;;;;;;;;;;;;;;;;;;;;;;;
244;f38_1_3;f38;1;3;filler;unrelated;grammatical;1;above;grammatical >> ?;condition 1 >> condition 3;9820;222414;20;;;;;;;;;;;;;;;;;;;;;;;;
244;f37_1_2;f37;1;2;filler;pseudo_CC/COM;grammatical;1;above;grammatical >> *;condition 1 >> condition 2;12819;251541;23;;;;;;;;;;;;;;;;;;;;;;;;
244;f23_1_3;f23;1;3;filler;pseudo_windef;grammatical;1;below;? >> grammatical;condition 3 >> condition 1;5686;266933;25;;;;;;;;;;;;;;;;;;;;;;;;
244;f30_1_3;f30;1;3;filler;unrelated;grammatical;1;below;? >> grammatical;condition 3 >> condition 1;8357;290359;28;;;;;;;;;;;;;;;;;;;;;;;;
244;f28_1_2;f28;1;2;filler;unrelated;grammatical;1;above;grammatical >> *;condition 1 >> condition 2;9390;320556;30;;;;;;;;;;;;;;;;;;;;;;;;
244;f22_1_3;f22;1;3;filler;pseudo_windef;grammatical;1;above;grammatical >> ?;condition 1 >> condition 3;6912;384428;36;;;;;;;;;;;;;;;;;;;;;;;;
244;f29_1_3;f29;1;3;filler;unrelated;?;3;below;grammatical >> ?;condition 1 >> condition 3;12898;416087;38;;;;;;;;;;;;;;;;;;;;;;;;
244;f47_1_2;f47;1;2;filler;unrelated;grammatical;1;below;* >> grammatical;condition 2 >> condition 1;5085;494678;46;;;;;;;;;;;;;;;;;;;;;;;;
244;f43_1_3;f43;1;3;filler;unrelated;grammatical;1;below;? >> grammatical;condition 3 >> condition 1;6156;533606;51;;;;;;;;;;;;;;;;;;;;;;;;
244;f33_1_3;f33;1;3;filler;unrelated;?;3;above;? >> grammatical;condition 3 >> condition 1;12358;593189;58;;;;;;;;;;;;;;;;;;;;;;;;
244;f27_1_3;f27;1;3;filler;pseudo_manner/COM;grammatical;1;below;? >> grammatical;condition 3 >> condition 1;7917;687316;68;;;;;;;;;;;;;;;;;;;;;;;;
244;f20_1_3;f20;1;3;filler;pseudo_windef;grammatical;1;above;grammatical >> ?;condition 1 >> condition 3;6513;713566;71;;;;;;;;;;;;;;;;;;;;;;;;
245;f37_1_2;f37;1;2;filler;pseudo_CC/COM;grammatical;1;below;* >> grammatical;condition 2 >> condition 1;5150;44534;7;;;;;;;;;;;;;;;;;;;;;;;;
245;f41_1_3;f41;1;3;filler;unrelated (pseudo_manner);?;3;below;grammatical >> ?;condition 1 >> condition 3;5966;65822;10;;;;;;;;;;;;;;;;;;;;;;;;
245;f43_1_3;f43;1;3;filler;unrelated;grammatical;1;below;? >> grammatical;condition 3 >> condition 1;4397;77246;12;;;;;;;;;;;;;;;;;;;;;;;;
245;f23_1_3;f23;1;3;filler;pseudo_windef;grammatical;1;above;grammatical >> ?;condition 1 >> condition 3;5877;156205;21;;;;;;;;;;;;;;;;;;;;;;;;
245;f30_1_3;f30;1;3;filler;unrelated;grammatical;1;above;grammatical >> ?;condition 1 >> condition 3;7550;177317;24;;;;;;;;;;;;;;;;;;;;;;;;
245;f38_1_3;f38;1;3;filler;unrelated;grammatical;1;above;grammatical >> ?;condition 1 >> condition 3;5231;224836;32;;;;;;;;;;;;;;;;;;;;;;;;
245;f20_1_3;f20;1;3;filler;pseudo_windef;grammatical;1;above;grammatical >> ?;condition 1 >> condition 3;7873;237253;34;;;;;;;;;;;;;;;;;;;;;;;;
245;f28_1_2;f28;1;2;filler;unrelated;grammatical;1;above;grammatical >> *;condition 1 >> condition 2;9845;276523;39;;;;;;;;;;;;;;;;;;;;;;;;
245;f46_1_3;f46;1;3;filler;unrelated;grammatical;1;above;grammatical >> ?;condition 1 >> condition 3;8295;348747;49;;;;;;;;;;;;;;;;;;;;;;;;
245;f47_1_2;f47;1;2;filler;unrelated;grammatical;1;above;grammatical >> *;condition 1 >> condition 2;5934;366434;53;;;;;;;;;;;;;;;;;;;;;;;;
245;f27_1_3;f27;1;3;filler;pseudo_manner/COM;grammatical;1;below;? >> grammatical;condition 3 >> condition 1;5564;393754;58;;;;;;;;;;;;;;;;;;;;;;;;
245;f33_1_3;f33;1;3;filler;unrelated;grammatical;1;above;grammatical >> ?;condition 1 >> condition 3;6024;448012;66;;;;;;;;;;;;;;;;;;;;;;;;
245;f29_1_3;f29;1;3;filler;unrelated;grammatical;1;below;? >> grammatical;condition 3 >> condition 1;6623;460162;68;;;;;;;;;;;;;;;;;;;;;;;;
245;f22_1_3;f22;1;3;filler;pseudo_windef;grammatical;1;above;grammatical >> ?;condition 1 >> condition 3;7942;476932;71;;;;;;;;;;;;;;;;;;;;;;;;
246;f41_1_3;f41;1;3;filler;unrelated (pseudo_manner);grammatical;1;below;? >> grammatical;condition 3 >> condition 1;12247;119883;8;;;;;;;;;;;;;;;;;;;;;;;;
246;f38_1_3;f38;1;3;filler;unrelated;grammatical;1;below;? >> grammatical;condition 3 >> condition 1;8879;190290;13;;;;;;;;;;;;;;;;;;;;;;;;
246;f47_1_2;f47;1;2;filler;unrelated;grammatical;1;below;* >> grammatical;condition 2 >> condition 1;7415;239098;17;;;;;;;;;;;;;;;;;;;;;;;;
246;f20_1_3;f20;1;3;filler;pseudo_windef;grammatical;1;above;grammatical >> ?;condition 1 >> condition 3;10223;339305;26;;;;;;;;;;;;;;;;;;;;;;;;
246;f37_1_2;f37;1;2;filler;pseudo_CC/COM;grammatical;1;above;grammatical >> *;condition 1 >> condition 2;13231;456112;38;;;;;;;;;;;;;;;;;;;;;;;;
246;f22_1_3;f22;1;3;filler;pseudo_windef;grammatical;1;above;grammatical >> ?;condition 1 >> condition 3;10176;481328;41;;;;;;;;;;;;;;;;;;;;;;;;
246;f33_1_3;f33;1;3;filler;unrelated;?;3;above;? >> grammatical;condition 3 >> condition 1;20247;510007;43;;;;;;;;;;;;;;;;;;;;;;;;
246;f46_1_3;f46;1;3;filler;unrelated;grammatical;1;below;? >> grammatical;condition 3 >> condition 1;19368;544079;46;;;;;;;;;;;;;;;;;;;;;;;;
246;f23_1_3;f23;1;3;filler;pseudo_windef;grammatical;1;above;grammatical >> ?;condition 1 >> condition 3;10128;619431;54;;;;;;;;;;;;;;;;;;;;;;;;
246;f27_1_3;f27;1;3;filler;pseudo_manner/COM;grammatical;1;below;? >> grammatical;condition 3 >> condition 1;9831;645655;57;;;;;;;;;;;;;;;;;;;;;;;;
246;f30_1_3;f30;1;3;filler;unrelated;grammatical;1;below;? >> grammatical;condition 3 >> condition 1;10070;671919;60;;;;;;;;;;;;;;;;;;;;;;;;
246;f28_1_2;f28;1;2;filler;unrelated;grammatical;1;below;* >> grammatical;condition 2 >> condition 1;11950;691070;62;;;;;;;;;;;;;;;;;;;;;;;;
246;f43_1_3;f43;1;3;filler;unrelated;grammatical;1;below;? >> grammatical;condition 3 >> condition 1;5599;763333;70;;;;;;;;;;;;;;;;;;;;;;;;
246;f29_1_3;f29;1;3;filler;unrelated;grammatical;1;above;grammatical >> ?;condition 1 >> condition 3;9255;772589;71;;;;;;;;;;;;;;;;;;;;;;;;
248;f29_1_3;f29;1;3;filler;unrelated;grammatical;1;below;? >> grammatical;condition 3 >> condition 1;7065;82941;7;;;;;;;;;;;;;;;;;;;;;;;;
248;f23_1_3;f23;1;3;filler;pseudo_windef;grammatical;1;above;grammatical >> ?;condition 1 >> condition 3;6974;103815;10;;;;;;;;;;;;;;;;;;;;;;;;
248;f20_1_3;f20;1;3;filler;pseudo_windef;grammatical;1;below;? >> grammatical;condition 3 >> condition 1;6561;139060;14;;;;;;;;;;;;;;;;;;;;;;;;
248;f46_1_3;f46;1;3;filler;unrelated;grammatical;1;above;grammatical >> ?;condition 1 >> condition 3;13512;160062;16;;;;;;;;;;;;;;;;;;;;;;;;
248;f38_1_3;f38;1;3;filler;unrelated;grammatical;1;below;? >> grammatical;condition 3 >> condition 1;4702;215962;20;;;;;;;;;;;;;;;;;;;;;;;;
248;f30_1_3;f30;1;3;filler;unrelated;grammatical;1;above;grammatical >> ?;condition 1 >> condition 3;8736;230446;22;;;;;;;;;;;;;;;;;;;;;;;;
248;f37_1_2;f37;1;2;filler;pseudo_CC/COM;grammatical;1;below;* >> grammatical;condition 2 >> condition 1;6634;249877;24;;;;;;;;;;;;;;;;;;;;;;;;
248;f33_1_3;f33;1;3;filler;unrelated;?;3;below;grammatical >> ?;condition 1 >> condition 3;10138;320082;30;;;;;;;;;;;;;;;;;;;;;;;;
248;f41_1_3;f41;1;3;filler;unrelated (pseudo_manner);grammatical;1;above;grammatical >> ?;condition 1 >> condition 3;6001;420312;42;;;;;;;;;;;;;;;;;;;;;;;;
248;f43_1_3;f43;1;3;filler;unrelated;grammatical;1;below;? >> grammatical;condition 3 >> condition 1;4743;441785;44;;;;;;;;;;;;;;;;;;;;;;;;
248;f28_1_2;f28;1;2;filler;unrelated;grammatical;1;above;grammatical >> *;condition 1 >> condition 2;8909;579111;59;;;;;;;;;;;;;;;;;;;;;;;;
248;f47_1_2;f47;1;2;filler;unrelated;grammatical;1;above;grammatical >> *;condition 1 >> condition 2;11033;612968;62;;;;;;;;;;;;;;;;;;;;;;;;
248;f27_1_3;f27;1;3;filler;pseudo_manner/COM;grammatical;1;below;? >> grammatical;condition 3 >> condition 1;9748;633914;65;;;;;;;;;;;;;;;;;;;;;;;;
248;f22_1_3;f22;1;3;filler;pseudo_windef;grammatical;1;below;? >> grammatical;condition 3 >> condition 1;7167;680313;71;;;;;;;;;;;;;;;;;;;;;;;;
249;f30_1_3;f30;1;3;filler;unrelated;grammatical;1;above;grammatical >> ?;condition 1 >> condition 3;11330;60849;6;;;;;;;;;;;;;;;;;;;;;;;;
249;f22_1_3;f22;1;3;filler;pseudo_windef;?;3;above;? >> grammatical;condition 3 >> condition 1;15263;145597;14;;;;;;;;;;;;;;;;;;;;;;;;
249;f33_1_3;f33;1;3;filler;unrelated;grammatical;1;above;grammatical >> ?;condition 1 >> condition 3;8581;179481;17;;;;;;;;;;;;;;;;;;;;;;;;
249;f46_1_3;f46;1;3;filler;unrelated;grammatical;1;below;? >> grammatical;condition 3 >> condition 1;8881;211848;20;;;;;;;;;;;;;;;;;;;;;;;;
249;f23_1_3;f23;1;3;filler;pseudo_windef;grammatical;1;below;? >> grammatical;condition 3 >> condition 1;7731;269266;25;;;;;;;;;;;;;;;;;;;;;;;;
249;f38_1_3;f38;1;3;filler;unrelated;grammatical;1;above;grammatical >> ?;condition 1 >> condition 3;6663;339082;31;;;;;;;;;;;;;;;;;;;;;;;;
249;f27_1_3;f27;1;3;filler;pseudo_manner/COM;grammatical;1;above;grammatical >> ?;condition 1 >> condition 3;18413;374633;33;;;;;;;;;;;;;;;;;;;;;;;;
249;f29_1_3;f29;1;3;filler;unrelated;grammatical;1;above;grammatical >> ?;condition 1 >> condition 3;10105;424450;38;;;;;;;;;;;;;;;;;;;;;;;;
249;f37_1_2;f37;1;2;filler;pseudo_CC/COM;grammatical;1;above;grammatical >> *;condition 1 >> condition 2;10061;460566;40;;;;;;;;;;;;;;;;;;;;;;;;
249;f28_1_2;f28;1;2;filler;unrelated;grammatical;1;above;grammatical >> *;condition 1 >> condition 2;13064;576234;50;;;;;;;;;;;;;;;;;;;;;;;;
249;f47_1_2;f47;1;2;filler;unrelated;grammatical;1;above;grammatical >> *;condition 1 >> condition 2;8515;604801;53;;;;;;;;;;;;;;;;;;;;;;;;
249;f41_1_3;f41;1;3;filler;unrelated (pseudo_manner);grammatical;1;below;? >> grammatical;condition 3 >> condition 1;21016;664902;58;;;;;;;;;;;;;;;;;;;;;;;;
249;f20_1_3;f20;1;3;filler;pseudo_windef;grammatical;1;below;? >> grammatical;condition 3 >> condition 1;7096;701084;62;;;;;;;;;;;;;;;;;;;;;;;;
249;f43_1_3;f43;1;3;filler;unrelated;grammatical;1;below;? >> grammatical;condition 3 >> condition 1;7865;794119;69;;;;;;;;;;;;;;;;;;;;;;;;
250;f23_1_3;f23;1;3;filler;pseudo_windef;grammatical;1;above;grammatical >> ?;condition 1 >> condition 3;8244;128150;10;;;;;;;;;;;;;;;;;;;;;;;;
250;f27_1_3;f27;1;3;filler;pseudo_manner/COM;grammatical;1;below;? >> grammatical;condition 3 >> condition 1;11729;163305;13;;;;;;;;;;;;;;;;;;;;;;;;
250;f38_1_3;f38;1;3;filler;unrelated;grammatical;1;below;? >> grammatical;condition 3 >> condition 1;9673;244001;19;;;;;;;;;;;;;;;;;;;;;;;;
250;f43_1_3;f43;1;3;filler;unrelated;grammatical;1;above;grammatical >> ?;condition 1 >> condition 3;7920;277737;22;;;;;;;;;;;;;;;;;;;;;;;;
250;f28_1_2;f28;1;2;filler;unrelated;grammatical;1;below;* >> grammatical;condition 2 >> condition 1;9306;304916;25;;;;;;;;;;;;;;;;;;;;;;;;
250;f33_1_3;f33;1;3;filler;unrelated;?;3;above;? >> grammatical;condition 3 >> condition 1;15571;345230;28;;;;;;;;;;;;;;;;;;;;;;;;
250;f30_1_3;f30;1;3;filler;unrelated;grammatical;1;below;? >> grammatical;condition 3 >> condition 1;11903;369070;30;;;;;;;;;;;;;;;;;;;;;;;;
250;f22_1_3;f22;1;3;filler;pseudo_windef;grammatical;1;above;grammatical >> ?;condition 1 >> condition 3;8662;457698;39;;;;;;;;;;;;;;;;;;;;;;;;
250;f37_1_2;f37;1;2;filler;pseudo_CC/COM;grammatical;1;below;* >> grammatical;condition 2 >> condition 1;7015;500594;43;;;;;;;;;;;;;;;;;;;;;;;;
250;f41_1_3;f41;1;3;filler;unrelated (pseudo_manner);?;3;above;? >> grammatical;condition 3 >> condition 1;13028;524049;45;;;;;;;;;;;;;;;;;;;;;;;;
250;f47_1_2;f47;1;2;filler;unrelated;grammatical;1;above;grammatical >> *;condition 1 >> condition 2;11332;561362;49;;;;;;;;;;;;;;;;;;;;;;;;
250;f29_1_3;f29;1;3;filler;unrelated;grammatical;1;below;? >> grammatical;condition 3 >> condition 1;5833;609936;53;;;;;;;;;;;;;;;;;;;;;;;;
250;f20_1_3;f20;1;3;filler;pseudo_windef;grammatical;1;above;grammatical >> ?;condition 1 >> condition 3;6317;694708;62;;;;;;;;;;;;;;;;;;;;;;;;
250;f46_1_3;f46;1;3;filler;unrelated;grammatical;1;above;grammatical >> ?;condition 1 >> condition 3;12547;778065;71;;;;;;;;;;;;;;;;;;;;;;;;
251;f46_1_3;f46;1;3;filler;unrelated;grammatical;1;above;grammatical >> ?;condition 1 >> condition 3;10247;157291;10;;;;;;;;;;;;;;;;;;;;;;;;
251;f20_1_3;f20;1;3;filler;pseudo_windef;grammatical;1;below;? >> grammatical;condition 3 >> condition 1;16270;189699;12;;;;;;;;;;;;;;;;;;;;;;;;
251;f33_1_3;f33;1;3;filler;unrelated;?;3;below;grammatical >> ?;condition 1 >> condition 3;16710;224562;15;;;;;;;;;;;;;;;;;;;;;;;;
251;f22_1_3;f22;1;3;filler;pseudo_windef;grammatical;1;above;grammatical >> ?;condition 1 >> condition 3;9023;246459;17;;;;;;;;;;;;;;;;;;;;;;;;
251;f38_1_3;f38;1;3;filler;unrelated;grammatical;1;below;? >> grammatical;condition 3 >> condition 1;5590;274403;20;;;;;;;;;;;;;;;;;;;;;;;;
251;f47_1_2;f47;1;2;filler;unrelated;grammatical;1;below;* >> grammatical;condition 2 >> condition 1;8847;291539;22;;;;;;;;;;;;;;;;;;;;;;;;
251;f28_1_2;f28;1;2;filler;unrelated;grammatical;1;below;* >> grammatical;condition 2 >> condition 1;9423;349522;28;;;;;;;;;;;;;;;;;;;;;;;;
251;f29_1_3;f29;1;3;filler;unrelated;grammatical;1;below;? >> grammatical;condition 3 >> condition 1;6215;364394;30;;;;;;;;;;;;;;;;;;;;;;;;
251;f30_1_3;f30;1;3;filler;unrelated;grammatical;1;below;? >> grammatical;condition 3 >> condition 1;8879;381914;32;;;;;;;;;;;;;;;;;;;;;;;;
251;f37_1_2;f37;1;2;filler;pseudo_CC/COM;grammatical;1;above;grammatical >> *;condition 1 >> condition 2;9175;485234;42;;;;;;;;;;;;;;;;;;;;;;;;
251;f27_1_3;f27;1;3;filler;pseudo_manner/COM;grammatical;1;below;? >> grammatical;condition 3 >> condition 1;8383;509409;45;;;;;;;;;;;;;;;;;;;;;;;;
251;f41_1_3;f41;1;3;filler;unrelated (pseudo_manner);grammatical;1;below;? >> grammatical;condition 3 >> condition 1;7863;591833;53;;;;;;;;;;;;;;;;;;;;;;;;
251;f23_1_3;f23;1;3;filler;pseudo_windef;grammatical;1;above;grammatical >> ?;condition 1 >> condition 3;12446;616217;55;;;;;;;;;;;;;;;;;;;;;;;;
251;f43_1_3;f43;1;3;filler;unrelated;grammatical;1;below;? >> grammatical;condition 3 >> condition 1;6951;662136;60;;;;;;;;;;;;;;;;;;;;;;;;
252;f28_1_2;f28;1;2;filler;unrelated;grammatical;1;above;grammatical >> *;condition 1 >> condition 2;9844;89318;6;;;;;;;;;;;;;;;;;;;;;;;;
252;f27_1_3;f27;1;3;filler;pseudo_manner/COM;grammatical;1;above;grammatical >> ?;condition 1 >> condition 3;15067;172672;12;;;;;;;;;;;;;;;;;;;;;;;;
252;f41_1_3;f41;1;3;filler;unrelated (pseudo_manner);grammatical;1;below;? >> grammatical;condition 3 >> condition 1;13993;262969;17;;;;;;;;;;;;;;;;;;;;;;;;
252;f38_1_3;f38;1;3;filler;unrelated;grammatical;1;below;? >> grammatical;condition 3 >> condition 1;8697;331622;22;;;;;;;;;;;;;;;;;;;;;;;;
252;f43_1_3;f43;1;3;filler;unrelated;grammatical;1;above;grammatical >> ?;condition 1 >> condition 3;18203;360255;24;;;;;;;;;;;;;;;;;;;;;;;;
252;f23_1_3;f23;1;3;filler;pseudo_windef;grammatical;1;below;? >> grammatical;condition 3 >> condition 1;8728;506047;33;;;;;;;;;;;;;;;;;;;;;;;;
252;f22_1_3;f22;1;3;filler;pseudo_windef;grammatical;1;above;grammatical >> ?;condition 1 >> condition 3;14024;585543;38;;;;;;;;;;;;;;;;;;;;;;;;
252;f37_1_2;f37;1;2;filler;pseudo_CC/COM;grammatical;1;below;* >> grammatical;condition 2 >> condition 1;12841;608815;40;;;;;;;;;;;;;;;;;;;;;;;;
252;f30_1_3;f30;1;3;filler;unrelated;grammatical;1;below;? >> grammatical;condition 3 >> condition 1;10787;825071;56;;;;;;;;;;;;;;;;;;;;;;;;
252;f33_1_3;f33;1;3;filler;unrelated;?;3;below;grammatical >> ?;condition 1 >> condition 3;16912;853831;58;;;;;;;;;;;;;;;;;;;;;;;;
252;f46_1_3;f46;1;3;filler;unrelated;grammatical;1;below;? >> grammatical;condition 3 >> condition 1;12739;883591;60;;;;;;;;;;;;;;;;;;;;;;;;
252;f47_1_2;f47;1;2;filler;unrelated;grammatical;1;above;grammatical >> *;condition 1 >> condition 2;10930;907647;62;;;;;;;;;;;;;;;;;;;;;;;;
252;f20_1_3;f20;1;3;filler;pseudo_windef;grammatical;1;below;? >> grammatical;condition 3 >> condition 1;6116;937513;65;;;;;;;;;;;;;;;;;;;;;;;;
252;f29_1_3;f29;1;3;filler;unrelated;grammatical;1;below;? >> grammatical;condition 3 >> condition 1;7145;955007;67;;;;;;;;;;;;;;;;;;;;;;;;