workerId;itemId;ENCODING;OPTION_0_CONDITION_NO;OPTION_1_CONDITION_NO;ITEM_FUNCTION;ITEM_SUBGROUP;ANSWER;ANSWER_CONDITION_NO;ANSWER_POSITION;PRESENTATION_ORDER;PRESENTATION_ORDER_CONDITION;rt;time_elapsed;trial_index
191;f44_1_2;f44;1;2;calibration(gr/ugr);unrelated;grammatical;1;above;grammatical >> *;condition 1 >> condition 2;9954;9955;0
191;f25_1_3;f25;1;3;calibration(gr/mittel);unrelated;grammatical;1;below;? >> grammatical;condition 3 >> condition 1;6263;16220;1
191;f26_1_2;f26;1;2;calibration(gr/ugr);unrelated;grammatical;1;below;* >> grammatical;condition 2 >> condition 1;9064;25286;2
191;f18_1_2;f18;1;2;calibration(gr/ugr);pseudo_windef;grammatical;1;below;* >> grammatical;condition 2 >> condition 1;4360;29648;3
191;f34_1_3;f34;1;3;calibration(gr/mittel);unrelated;grammatical;1;above;grammatical >> ?;condition 1 >> condition 3;13762;43412;4
191;f36_1_3;f36;1;3;calibration(gr/mittel);unrelated;?;3;above;? >> grammatical;condition 3 >> condition 1;11295;54709;5
191;f02_1_2;f02;1;2;control;related;SUBJ OBJfix;1;below;*OBJfix SUBJ >> SUBJ OBJfix;condition 2 >> condition 1;9791;64501;6
191;f42_1_2;f42;1;2;attention;unrelated (pseudo_manner);grammatical;1;above;grammatical >> *;condition 1 >> condition 2;18876;83379;7
191;f01_1_2;f01;1;2;control;related;SUBJ OBJfix;1;below;*OBJfix SUBJ >> SUBJ OBJfix;condition 2 >> condition 1;10472;101113;9
191;f20_1_3;f20;1;3;filler;pseudo_windef;grammatical;1;below;? >> grammatical;condition 3 >> condition 1;7618;108732;10
191;f07_1_2;f07;1;2;control;related;SUBJ OBJfix;1;below;*OBJfix SUBJ >> SUBJ OBJfix;condition 2 >> condition 1;9298;129871;12
191;f38_1_3;f38;1;3;filler;unrelated;grammatical;1;above;grammatical >> ?;condition 1 >> condition 3;6541;136413;13
191;f05_1_2;f05;1;2;control;related;SUBJ OBJfix;1;above;SUBJ OBJfix >> *OBJfix SUBJ;condition 1 >> condition 2;7597;150963;15
191;f31_1_2;f31;1;2;attention;unrelated;grammatical;1;below;* >> grammatical;condition 2 >> condition 1;9318;160281;16
191;f12_1_2;f12;1;2;control;unrelated;SUBJ OBJ;1;above;SUBJ OBJ >> *OBJ SUBJ;condition 1 >> condition 2;6873;179215;18
191;f37_1_2;f37;1;2;filler;pseudo_CC/COM;grammatical;1;below;* >> grammatical;condition 2 >> condition 1;9792;189008;19
191;f15_1_2;f15;1;2;control;unrelated;SUBJ OBJ;1;below;*OBJ SUBJ >> SUBJ OBJ;condition 2 >> condition 1;6831;195842;20
191;f16_1_2;f16;1;2;control;unrelated;SUBJ OBJ;1;above;SUBJ OBJ >> *OBJ SUBJ;condition 1 >> condition 2;7226;219375;22
191;f29_1_3;f29;1;3;filler;unrelated;grammatical;1;above;grammatical >> ?;condition 1 >> condition 3;8518;227894;23
191;f32_1_2;f32;1;2;attention;unrelated;grammatical;1;above;grammatical >> *;condition 1 >> condition 2;11465;246397;25
191;f17_1_2;f17;1;2;attention;pseudo_windef;grammatical;1;below;* >> grammatical;condition 2 >> condition 1;7830;261605;27
191;f11_1_2;f11;1;2;control;unrelated;SUBJ OBJ;1;below;*OBJ SUBJ >> SUBJ OBJ;condition 2 >> condition 1;7220;268827;28
191;f40_1_2;f40;1;2;attention;unrelated;grammatical;1;below;* >> grammatical;condition 2 >> condition 1;11268;288780;30
191;f09_1_2;f09;1;2;control;unrelated;SUBJ OBJ;1;above;SUBJ OBJ >> *OBJ SUBJ;condition 1 >> condition 2;7995;305730;32
191;f47_1_2;f47;1;2;filler;unrelated;grammatical;1;above;grammatical >> *;condition 1 >> condition 2;6996;312727;33
191;f46_1_3;f46;1;3;filler;unrelated;grammatical;1;below;? >> grammatical;condition 3 >> condition 1;9545;333044;35
191;f21_1_2;f21;1;2;attention;pseudo_windef;grammatical;1;below;* >> grammatical;condition 2 >> condition 1;9681;353098;37
191;f45_1_2;f45;1;2;attention;unrelated;grammatical;1;above;grammatical >> *;condition 1 >> condition 2;14084;373447;39
191;f41_1_3;f41;1;3;filler;unrelated (pseudo_manner);grammatical;1;below;? >> grammatical;condition 3 >> condition 1;8602;390544;41
191;f43_1_3;f43;1;3;filler;unrelated;grammatical;1;above;grammatical >> ?;condition 1 >> condition 3;5005;405159;43
191;f10_1_2;f10;1;2;control;unrelated;SUBJ OBJ;1;below;*OBJ SUBJ >> SUBJ OBJ;condition 2 >> condition 1;7134;412294;44
191;f19_1_2;f19;1;2;attention;pseudo_windef;grammatical;1;below;* >> grammatical;condition 2 >> condition 1;6823;424342;46
191;f08_1_2;f08;1;2;control;related;SUBJ OBJfix;1;above;SUBJ OBJfix >> *OBJfix SUBJ;condition 1 >> condition 2;5255;429598;47
191;f39_1_2;f39;1;2;attention;unrelated;grammatical;1;above;grammatical >> *;condition 1 >> condition 2;7993;445519;49
191;f35_1_2;f35;1;2;attention;pseudo_COM/manner;grammatical;1;below;* >> grammatical;condition 2 >> condition 1;24437;477751;51
191;f22_1_3;f22;1;3;filler;pseudo_windef;grammatical;1;below;? >> grammatical;condition 3 >> condition 1;13244;500139;53
191;f03_1_2;f03;1;2;control;related;SUBJ OBJfix;1;above;SUBJ OBJfix >> *OBJfix SUBJ;condition 1 >> condition 2;8637;524645;55
191;f33_1_3;f33;1;3;filler;unrelated;?;3;above;? >> grammatical;condition 3 >> condition 1;7175;531821;56
191;f04_1_2;f04;1;2;control;related;SUBJ OBJfix;1;below;*OBJfix SUBJ >> SUBJ OBJfix;condition 2 >> condition 1;4652;544721;58
191;f48_1_2;f48;1;2;attention;unrelated;grammatical;1;below;* >> grammatical;condition 2 >> condition 1;19271;563992;59
191;f27_1_3;f27;1;3;filler;pseudo_manner/COM;grammatical;1;below;? >> grammatical;condition 3 >> condition 1;9716;581563;61
191;f13_1_2;f13;1;2;control;unrelated;SUBJ OBJ;1;above;SUBJ OBJ >> *OBJ SUBJ;condition 1 >> condition 2;8120;589684;62
191;f30_1_3;f30;1;3;filler;unrelated;grammatical;1;above;grammatical >> ?;condition 1 >> condition 3;15716;615983;64
191;f28_1_2;f28;1;2;filler;unrelated;grammatical;1;below;* >> grammatical;condition 2 >> condition 1;6718;637291;66
191;f14_1_2;f14;1;2;control;unrelated;SUBJ OBJ;1;above;SUBJ OBJ >> *OBJ SUBJ;condition 1 >> condition 2;6889;653626;68
191;f23_1_3;f23;1;3;filler;pseudo_windef;grammatical;1;above;grammatical >> ?;condition 1 >> condition 3;7058;660684;69
191;f06_1_2;f06;1;2;control;related;SUBJ OBJfix;1;above;SUBJ OBJfix >> *OBJfix SUBJ;condition 1 >> condition 2;8497;669182;70
191;f24_1_2;f24;1;2;attention;pseudo_windef;grammatical;1;above;grammatical >> *;condition 1 >> condition 2;8773;677955;71
194;f36;f36;1;3;calibration(gr/mittel);unrelated;?;3;above;? >> grammatical;condition 3 >> condition 1;15519;15522;0
194;f44;f44;1;2;calibration(gr/ugr);unrelated;grammatical;1;above;grammatical >> *;condition 1 >> condition 2;15595;31120;1
194;f26;f26;1;2;calibration(gr/ugr);unrelated;grammatical;1;below;* >> grammatical;condition 2 >> condition 1;7645;38766;2
194;f34;f34;1;3;calibration(gr/mittel);unrelated;grammatical;1;below;? >> grammatical;condition 3 >> condition 1;9683;48451;3
194;f18;f18;1;2;calibration(gr/ugr);pseudo_windef;grammatical;1;above;grammatical >> *;condition 1 >> condition 2;10065;58518;4
194;f25;f25;1;3;calibration(gr/mittel);unrelated;grammatical;1;below;? >> grammatical;condition 3 >> condition 1;11060;69581;5
194;f28;f28;1;2;filler;unrelated;grammatical;1;above;grammatical >> *;condition 1 >> condition 2;10117;79700;6
194;f38;f38;1;3;filler;unrelated;grammatical;1;above;grammatical >> ?;condition 1 >> condition 3;9564;103479;8
194;f07;f07;1;2;control;related;SUBJ OBJfix;1;below;*OBJfix SUBJ >> SUBJ OBJfix;condition 2 >> condition 1;10397;113878;9
194;f45;f45;1;2;attention;unrelated;*;2;above;* >> grammatical;condition 2 >> condition 1;20131;144696;11
194;f10;f10;1;2;control;unrelated;SUBJ OBJ;1;below;*OBJ SUBJ >> SUBJ OBJ;condition 2 >> condition 1;9048;167044;13
194;f48;f48;1;2;attention;unrelated;*;2;above;* >> grammatical;condition 2 >> condition 1;27162;194209;14
194;f43;f43;1;3;filler;unrelated;grammatical;1;below;? >> grammatical;condition 3 >> condition 1;8068;218140;16
194;f31;f31;1;2;attention;unrelated;grammatical;1;below;* >> grammatical;condition 2 >> condition 1;19579;253025;18
194;f11;f11;1;2;control;unrelated;SUBJ OBJ;1;below;*OBJ SUBJ >> SUBJ OBJ;condition 2 >> condition 1;5600;274593;20
194;f23;f23;1;3;filler;pseudo_windef;grammatical;1;below;? >> grammatical;condition 3 >> condition 1;7898;282493;21
194;f01;f01;1;2;control;related;SUBJ OBJfix;1;below;*OBJfix SUBJ >> SUBJ OBJfix;condition 2 >> condition 1;6329;288823;22
194;f20;f20;1;3;filler;pseudo_windef;grammatical;1;above;grammatical >> ?;condition 1 >> condition 3;12744;319104;24
194;f08;f08;1;2;control;related;SUBJ OBJfix;1;above;SUBJ OBJfix >> *OBJfix SUBJ;condition 1 >> condition 2;12867;331972;25
194;f17;f17;1;2;attention;pseudo_windef;grammatical;1;below;* >> grammatical;condition 2 >> condition 1;12666;356038;27
194;f09;f09;1;2;control;unrelated;SUBJ OBJ;1;below;*OBJ SUBJ >> SUBJ OBJ;condition 2 >> condition 1;9465;365504;28
194;f14;f14;1;2;control;unrelated;SUBJ OBJ;1;above;SUBJ OBJ >> *OBJ SUBJ;condition 1 >> condition 2;12763;389233;30
194;f32;f32;1;2;attention;unrelated;grammatical;1;below;* >> grammatical;condition 2 >> condition 1;14300;403535;31
194;f05;f05;1;2;control;related;SUBJ OBJfix;1;below;*OBJfix SUBJ >> SUBJ OBJfix;condition 2 >> condition 1;9265;425050;33
194;f41;f41;1;3;filler;unrelated (pseudo_manner);grammatical;1;above;grammatical >> ?;condition 1 >> condition 3;10898;435949;34
194;f46;f46;1;3;filler;unrelated;grammatical;1;below;? >> grammatical;condition 3 >> condition 1;10549;459131;36
194;f29;f29;1;3;filler;unrelated;grammatical;1;above;grammatical >> ?;condition 1 >> condition 3;9765;479364;38
194;f06;f06;1;2;control;related;SUBJ OBJfix;1;below;*OBJfix SUBJ >> SUBJ OBJfix;condition 2 >> condition 1;7748;487113;39
194;f16;f16;1;2;control;unrelated;SUBJ OBJ;1;above;SUBJ OBJ >> *OBJ SUBJ;condition 1 >> condition 2;14594;510859;41
194;f30;f30;1;3;filler;unrelated;grammatical;1;below;? >> grammatical;condition 3 >> condition 1;10150;521011;42
194;f35;f35;1;2;attention;pseudo_COM/manner;grammatical;1;below;* >> grammatical;condition 2 >> condition 1;12881;543360;44
194;f02;f02;1;2;control;related;SUBJ OBJfix;1;below;*OBJfix SUBJ >> SUBJ OBJfix;condition 2 >> condition 1;10814;571808;46
194;f39;f39;1;2;attention;unrelated;grammatical;1;below;* >> grammatical;condition 2 >> condition 1;25929;597738;47
194;f13;f13;1;2;control;unrelated;SUBJ OBJ;1;above;SUBJ OBJ >> *OBJ SUBJ;condition 1 >> condition 2;12628;610369;48
194;f19;f19;1;2;attention;pseudo_windef;grammatical;1;below;* >> grammatical;condition 2 >> condition 1;7779;636134;50
194;f40;f40;1;2;attention;unrelated;grammatical;1;below;* >> grammatical;condition 2 >> condition 1;10917;657868;52
194;f04;f04;1;2;control;related;SUBJ OBJfix;1;below;*OBJfix SUBJ >> SUBJ OBJfix;condition 2 >> condition 1;7365;679548;54
194;f42;f42;1;2;attention;unrelated (pseudo_manner);grammatical;1;above;grammatical >> *;condition 1 >> condition 2;13547;693097;55
194;f47;f47;1;2;filler;unrelated;grammatical;1;below;* >> grammatical;condition 2 >> condition 1;8517;715964;57
194;f21;f21;1;2;attention;pseudo_windef;grammatical;1;below;* >> grammatical;condition 2 >> condition 1;10945;736094;59
194;f37;f37;1;2;filler;pseudo_CC/COM;grammatical;1;below;* >> grammatical;condition 2 >> condition 1;10878;759893;61
194;f03;f03;1;2;control;related;SUBJ OBJfix;1;below;*OBJfix SUBJ >> SUBJ OBJfix;condition 2 >> condition 1;9497;769393;62
194;f27;f27;1;3;filler;pseudo_manner/COM;grammatical;1;above;grammatical >> ?;condition 1 >> condition 3;20766;800759;64
194;f33;f33;1;3;filler;unrelated;?;3;below;grammatical >> ?;condition 1 >> condition 3;15831;829041;66
194;f15;f15;1;2;control;unrelated;SUBJ OBJ;1;above;SUBJ OBJ >> *OBJ SUBJ;condition 1 >> condition 2;11782;857356;68
194;f22;f22;1;3;filler;pseudo_windef;grammatical;1;above;grammatical >> ?;condition 1 >> condition 3;13278;870635;69
194;f12;f12;1;2;control;unrelated;SUBJ OBJ;1;below;*OBJ SUBJ >> SUBJ OBJ;condition 2 >> condition 1;10248;880885;70
194;f24;f24;1;2;attention;pseudo_windef;grammatical;1;above;grammatical >> *;condition 1 >> condition 2;9131;890018;71
196;f44;f44;1;2;calibration(gr/ugr);unrelated;grammatical;1;above;grammatical >> *;condition 1 >> condition 2;10770;10773;0
196;f26;f26;1;2;calibration(gr/ugr);unrelated;grammatical;1;above;grammatical >> *;condition 1 >> condition 2;5271;16045;1
196;f25;f25;1;3;calibration(gr/mittel);unrelated;grammatical;1;below;? >> grammatical;condition 3 >> condition 1;3947;19995;2
196;f34;f34;1;3;calibration(gr/mittel);unrelated;grammatical;1;above;grammatical >> ?;condition 1 >> condition 3;4527;24526;3
196;f18;f18;1;2;calibration(gr/ugr);pseudo_windef;grammatical;1;below;* >> grammatical;condition 2 >> condition 1;6941;31470;4
196;f36;f36;1;3;calibration(gr/mittel);unrelated;?;3;below;grammatical >> ?;condition 1 >> condition 3;4126;35598;5
196;f17;f17;1;2;attention;pseudo_windef;grammatical;1;above;grammatical >> *;condition 1 >> condition 2;25348;60948;6
196;f09;f09;1;2;control;unrelated;SUBJ OBJ;1;below;*OBJ SUBJ >> SUBJ OBJ;condition 2 >> condition 1;9102;70052;7
196;f10;f10;1;2;control;unrelated;SUBJ OBJ;1;below;*OBJ SUBJ >> SUBJ OBJ;condition 2 >> condition 1;4915;86993;9
196;f46;f46;1;3;filler;unrelated;grammatical;1;below;? >> grammatical;condition 3 >> condition 1;9210;96205;10
196;f08;f08;1;2;control;related;SUBJ OBJfix;1;below;*OBJfix SUBJ >> SUBJ OBJfix;condition 2 >> condition 1;8924;111580;12
196;f32;f32;1;2;attention;unrelated;grammatical;1;above;grammatical >> *;condition 1 >> condition 2;10178;121759;13
196;f02;f02;1;2;control;related;SUBJ OBJfix;1;below;*OBJfix SUBJ >> SUBJ OBJfix;condition 2 >> condition 1;5193;126953;14
196;f33;f33;1;3;filler;unrelated;grammatical;1;above;grammatical >> ?;condition 1 >> condition 3;4066;141537;16
196;f16;f16;1;2;control;unrelated;SUBJ OBJ;1;above;SUBJ OBJ >> *OBJ SUBJ;condition 1 >> condition 2;7207;148745;17
196;f06;f06;1;2;control;related;SUBJ OBJfix;1;above;SUBJ OBJfix >> *OBJfix SUBJ;condition 1 >> condition 2;5868;164454;19
196;f39;f39;1;2;attention;unrelated;grammatical;1;above;grammatical >> *;condition 1 >> condition 2;9196;173651;20
196;f23;f23;1;3;filler;pseudo_windef;grammatical;1;below;? >> grammatical;condition 3 >> condition 1;5875;187859;22
196;f42;f42;1;2;attention;unrelated (pseudo_manner);*;2;above;* >> grammatical;condition 2 >> condition 1;9975;204545;24
196;f28;f28;1;2;filler;unrelated;grammatical;1;above;grammatical >> *;condition 1 >> condition 2;6787;217513;26
196;f20;f20;1;3;filler;pseudo_windef;grammatical;1;above;grammatical >> ?;condition 1 >> condition 3;4557;230999;28
196;f40;f40;1;2;attention;unrelated;grammatical;1;below;* >> grammatical;condition 2 >> condition 1;10545;247904;30
196;f41;f41;1;3;filler;unrelated (pseudo_manner);grammatical;1;below;? >> grammatical;condition 3 >> condition 1;6467;262883;32
196;f27;f27;1;3;filler;pseudo_manner/COM;grammatical;1;above;grammatical >> ?;condition 1 >> condition 3;5007;277221;34
196;f04;f04;1;2;control;related;SUBJ OBJfix;1;above;SUBJ OBJfix >> *OBJfix SUBJ;condition 1 >> condition 2;5135;282358;35
196;f43;f43;1;3;filler;unrelated;grammatical;1;above;grammatical >> ?;condition 1 >> condition 3;5697;295345;37
196;f29;f29;1;3;filler;unrelated;grammatical;1;above;grammatical >> ?;condition 1 >> condition 3;6507;307975;39
196;f45;f45;1;2;attention;unrelated;grammatical;1;above;grammatical >> *;condition 1 >> condition 2;14664;330814;41
196;f11;f11;1;2;control;unrelated;SUBJ OBJ;1;above;SUBJ OBJ >> *OBJ SUBJ;condition 1 >> condition 2;5717;336534;42
196;f12;f12;1;2;control;unrelated;SUBJ OBJ;1;above;SUBJ OBJ >> *OBJ SUBJ;condition 1 >> condition 2;4363;350183;44
196;f24;f24;1;2;attention;pseudo_windef;grammatical;1;below;* >> grammatical;condition 2 >> condition 1;24107;374293;45
196;f03;f03;1;2;control;related;SUBJ OBJfix;1;below;*OBJfix SUBJ >> SUBJ OBJfix;condition 2 >> condition 1;4142;378437;46
196;f37;f37;1;2;filler;pseudo_CC/COM;grammatical;1;above;grammatical >> *;condition 1 >> condition 2;14498;399699;48
196;f14;f14;1;2;control;unrelated;SUBJ OBJ;1;above;SUBJ OBJ >> *OBJ SUBJ;condition 1 >> condition 2;5833;410809;50
196;f35;f35;1;2;attention;pseudo_COM/manner;*;2;above;* >> grammatical;condition 2 >> condition 1;25166;435976;51
196;f15;f15;1;2;control;unrelated;SUBJ OBJ;1;above;SUBJ OBJ >> *OBJ SUBJ;condition 1 >> condition 2;5986;441964;52
196;f05;f05;1;2;control;related;SUBJ OBJfix;1;below;*OBJfix SUBJ >> SUBJ OBJfix;condition 2 >> condition 1;8057;459539;54
196;f31;f31;1;2;attention;unrelated;grammatical;1;above;grammatical >> *;condition 1 >> condition 2;9574;469115;55
196;f47;f47;1;2;filler;unrelated;grammatical;1;above;grammatical >> *;condition 1 >> condition 2;9199;486910;57
196;f30;f30;1;3;filler;unrelated;?;3;above;? >> grammatical;condition 3 >> condition 1;8822;501743;59
196;f13;f13;1;2;control;unrelated;SUBJ OBJ;1;below;*OBJ SUBJ >> SUBJ OBJ;condition 2 >> condition 1;4937;506681;60
196;f48;f48;1;2;attention;unrelated;grammatical;1;above;grammatical >> *;condition 1 >> condition 2;18320;533243;62
196;f22;f22;1;3;filler;pseudo_windef;grammatical;1;above;grammatical >> ?;condition 1 >> condition 3;4707;543896;64
196;f07;f07;1;2;control;related;SUBJ OBJfix;1;above;SUBJ OBJfix >> *OBJfix SUBJ;condition 1 >> condition 2;7944;558915;66
196;f19;f19;1;2;attention;pseudo_windef;grammatical;1;above;grammatical >> *;condition 1 >> condition 2;12014;570932;67
196;f21;f21;1;2;attention;pseudo_windef;grammatical;1;below;* >> grammatical;condition 2 >> condition 1;8267;586388;69
196;f01;f01;1;2;control;related;SUBJ OBJfix;1;above;SUBJ OBJfix >> *OBJfix SUBJ;condition 1 >> condition 2;5234;591623;70
196;f38;f38;1;3;filler;unrelated;grammatical;1;below;? >> grammatical;condition 3 >> condition 1;4026;595651;71
197;f36;f36;1;3;calibration(gr/mittel);unrelated;grammatical;1;below;? >> grammatical;condition 3 >> condition 1;6338;6339;0
197;f25;f25;1;3;calibration(gr/mittel);unrelated;grammatical;1;above;grammatical >> ?;condition 1 >> condition 3;7764;14105;1
197;f44;f44;1;2;calibration(gr/ugr);unrelated;grammatical;1;below;* >> grammatical;condition 2 >> condition 1;11146;25253;2
197;f18;f18;1;2;calibration(gr/ugr);pseudo_windef;grammatical;1;below;* >> grammatical;condition 2 >> condition 1;4494;29749;3
197;f26;f26;1;2;calibration(gr/ugr);unrelated;grammatical;1;below;* >> grammatical;condition 2 >> condition 1;11648;41401;4
197;f34;f34;1;3;calibration(gr/mittel);unrelated;grammatical;1;below;? >> grammatical;condition 3 >> condition 1;5887;47290;5
197;f40;f40;1;2;attention;unrelated;grammatical;1;below;* >> grammatical;condition 2 >> condition 1;5702;52993;6
197;f27;f27;1;3;filler;pseudo_manner/COM;grammatical;1;below;? >> grammatical;condition 3 >> condition 1;21178;86048;8
197;f30;f30;1;3;filler;unrelated;grammatical;1;above;grammatical >> ?;condition 1 >> condition 3;16825;116804;10
197;f42;f42;1;2;attention;unrelated (pseudo_manner);grammatical;1;below;* >> grammatical;condition 2 >> condition 1;10668;137325;12
197;f14;f14;1;2;control;unrelated;SUBJ OBJ;1;below;*OBJ SUBJ >> SUBJ OBJ;condition 2 >> condition 1;4108;141433;13
197;f19;f19;1;2;attention;pseudo_windef;grammatical;1;below;* >> grammatical;condition 2 >> condition 1;9270;156657;15
197;f43;f43;1;3;filler;unrelated;grammatical;1;below;? >> grammatical;condition 3 >> condition 1;5233;170316;17
197;f09;f09;1;2;control;unrelated;SUBJ OBJ;1;below;*OBJ SUBJ >> SUBJ OBJ;condition 2 >> condition 1;4466;174784;18
197;f46;f46;1;3;filler;unrelated;grammatical;1;above;grammatical >> ?;condition 1 >> condition 3;9327;192231;20
197;f24;f24;1;2;attention;pseudo_windef;grammatical;1;below;* >> grammatical;condition 2 >> condition 1;12105;220731;22
197;f07;f07;1;2;control;related;SUBJ OBJfix;1;above;SUBJ OBJfix >> *OBJfix SUBJ;condition 1 >> condition 2;14114;243579;24
197;f47;f47;1;2;filler;unrelated;grammatical;1;below;* >> grammatical;condition 2 >> condition 1;3508;247090;25
197;f13;f13;1;2;control;unrelated;SUBJ OBJ;1;above;SUBJ OBJ >> *OBJ SUBJ;condition 1 >> condition 2;6746;266086;27
197;f28;f28;1;2;filler;unrelated;grammatical;1;below;* >> grammatical;condition 2 >> condition 1;6005;272091;28
197;f41;f41;1;3;filler;unrelated (pseudo_manner);grammatical;1;below;? >> grammatical;condition 3 >> condition 1;7759;288137;30
197;f16;f16;1;2;control;unrelated;SUBJ OBJ;1;below;*OBJ SUBJ >> SUBJ OBJ;condition 2 >> condition 1;4640;300272;32
197;f29;f29;1;3;filler;unrelated;grammatical;1;below;? >> grammatical;condition 3 >> condition 1;33367;333640;33
197;f22;f22;1;3;filler;pseudo_windef;?;3;below;grammatical >> ?;condition 1 >> condition 3;13251;368968;35
197;f20;f20;1;3;filler;pseudo_windef;?;3;below;grammatical >> ?;condition 1 >> condition 3;12936;391773;37
197;f12;f12;1;2;control;unrelated;SUBJ OBJ;1;above;SUBJ OBJ >> *OBJ SUBJ;condition 1 >> condition 2;10673;402447;38
197;f21;f21;1;2;attention;pseudo_windef;grammatical;1;above;grammatical >> *;condition 1 >> condition 2;6279;419255;40
197;f03;f03;1;2;control;related;SUBJ OBJfix;1;above;SUBJ OBJfix >> *OBJfix SUBJ;condition 1 >> condition 2;6289;430177;42
197;f32;f32;1;2;attention;unrelated;grammatical;1;below;* >> grammatical;condition 2 >> condition 1;8923;439101;43
197;f35;f35;1;2;attention;pseudo_COM/manner;grammatical;1;above;grammatical >> *;condition 1 >> condition 2;13753;469881;45
197;f01;f01;1;2;control;related;SUBJ OBJfix;1;below;*OBJfix SUBJ >> SUBJ OBJfix;condition 2 >> condition 1;4032;473915;46
197;f39;f39;1;2;attention;unrelated;grammatical;1;below;* >> grammatical;condition 2 >> condition 1;8184;490802;48
197;f08;f08;1;2;control;related;SUBJ OBJfix;1;above;SUBJ OBJfix >> *OBJfix SUBJ;condition 1 >> condition 2;6291;497095;49
197;f38;f38;1;3;filler;unrelated;grammatical;1;below;? >> grammatical;condition 3 >> condition 1;10858;514260;51
197;f02;f02;1;2;control;related;SUBJ OBJfix;1;below;*OBJfix SUBJ >> SUBJ OBJfix;condition 2 >> condition 1;4187;537985;53
197;f23;f23;1;3;filler;pseudo_windef;?;3;below;grammatical >> ?;condition 1 >> condition 3;8983;546970;54
197;f11;f11;1;2;control;unrelated;SUBJ OBJ;1;above;SUBJ OBJ >> *OBJ SUBJ;condition 1 >> condition 2;7624;554595;55
197;f17;f17;1;2;attention;pseudo_windef;grammatical;1;above;grammatical >> *;condition 1 >> condition 2;5706;569836;57
197;f37;f37;1;2;filler;pseudo_CC/COM;grammatical;1;above;grammatical >> *;condition 1 >> condition 2;5867;581265;59
197;f06;f06;1;2;control;related;SUBJ OBJfix;1;above;SUBJ OBJfix >> *OBJfix SUBJ;condition 1 >> condition 2;5845;587111;60
197;f10;f10;1;2;control;unrelated;SUBJ OBJ;1;below;*OBJ SUBJ >> SUBJ OBJ;condition 2 >> condition 1;3627;599490;62
197;f48;f48;1;2;attention;unrelated;grammatical;1;above;grammatical >> *;condition 1 >> condition 2;7754;607246;63
197;f05;f05;1;2;control;related;SUBJ OBJfix;1;below;*OBJfix SUBJ >> SUBJ OBJfix;condition 2 >> condition 1;4533;618984;65
197;f45;f45;1;2;attention;unrelated;grammatical;1;above;grammatical >> *;condition 1 >> condition 2;6334;625319;66
197;f15;f15;1;2;control;unrelated;SUBJ OBJ;1;above;SUBJ OBJ >> *OBJ SUBJ;condition 1 >> condition 2;5065;630385;67
197;f33;f33;1;3;filler;unrelated;grammatical;1;above;grammatical >> ?;condition 1 >> condition 3;8219;647360;69
197;f04;f04;1;2;control;related;SUBJ OBJfix;1;above;SUBJ OBJfix >> *OBJfix SUBJ;condition 1 >> condition 2;6838;654198;70
197;f31;f31;1;2;attention;unrelated;grammatical;1;above;grammatical >> *;condition 1 >> condition 2;7274;661472;71
198;f34;f34;1;3;calibration(gr/mittel);unrelated;grammatical;1;below;? >> grammatical;condition 3 >> condition 1;12263;12264;0
198;f36;f36;1;3;calibration(gr/mittel);unrelated;?;3;above;? >> grammatical;condition 3 >> condition 1;30948;43213;1
198;f44;f44;1;2;calibration(gr/ugr);unrelated;grammatical;1;above;grammatical >> *;condition 1 >> condition 2;17452;60666;2
198;f18;f18;1;2;calibration(gr/ugr);pseudo_windef;grammatical;1;above;grammatical >> *;condition 1 >> condition 2;11427;72093;3
198;f26;f26;1;2;calibration(gr/ugr);unrelated;grammatical;1;below;* >> grammatical;condition 2 >> condition 1;9943;82038;4
198;f25;f25;1;3;calibration(gr/mittel);unrelated;grammatical;1;below;? >> grammatical;condition 3 >> condition 1;13162;95200;5
198;f28;f28;1;2;filler;unrelated;grammatical;1;below;* >> grammatical;condition 2 >> condition 1;16499;111700;6
198;f42;f42;1;2;attention;unrelated (pseudo_manner);grammatical;1;above;grammatical >> *;condition 1 >> condition 2;14818;142925;8
198;f47;f47;1;2;filler;unrelated;grammatical;1;below;* >> grammatical;condition 2 >> condition 1;8295;174076;10
198;f10;f10;1;2;control;unrelated;SUBJ OBJ;1;above;SUBJ OBJ >> *OBJ SUBJ;condition 1 >> condition 2;10481;184558;11
198;f17;f17;1;2;attention;pseudo_windef;grammatical;1;above;grammatical >> *;condition 1 >> condition 2;9819;204827;13
198;f37;f37;1;2;filler;pseudo_CC/COM;grammatical;1;below;* >> grammatical;condition 2 >> condition 1;19765;243985;15
198;f33;f33;1;3;filler;unrelated;grammatical;1;above;grammatical >> ?;condition 1 >> condition 3;14679;288987;17
198;f29;f29;1;3;filler;unrelated;grammatical;1;above;grammatical >> ?;condition 1 >> condition 3;10595;313218;19
198;f32;f32;1;2;attention;unrelated;grammatical;1;below;* >> grammatical;condition 2 >> condition 1;13239;349667;21
198;f05;f05;1;2;control;related;SUBJ OBJfix;1;below;*OBJfix SUBJ >> SUBJ OBJfix;condition 2 >> condition 1;10920;390626;23
198;f46;f46;1;3;filler;unrelated;grammatical;1;above;grammatical >> ?;condition 1 >> condition 3;18278;408905;24
198;f45;f45;1;2;attention;unrelated;grammatical;1;above;grammatical >> *;condition 1 >> condition 2;9642;428247;26
198;f48;f48;1;2;attention;unrelated;grammatical;1;below;* >> grammatical;condition 2 >> condition 1;9289;454515;28
198;f07;f07;1;2;control;related;SUBJ OBJfix;1;above;SUBJ OBJfix >> *OBJfix SUBJ;condition 1 >> condition 2;20837;507405;30
198;f40;f40;1;2;attention;unrelated;grammatical;1;below;* >> grammatical;condition 2 >> condition 1;21330;528735;31
198;f15;f15;1;2;control;unrelated;SUBJ OBJ;1;below;*OBJ SUBJ >> SUBJ OBJ;condition 2 >> condition 1;5811;547562;33
198;f23;f23;1;3;filler;pseudo_windef;grammatical;1;above;grammatical >> ?;condition 1 >> condition 3;11552;559114;34
198;f14;f14;1;2;control;unrelated;SUBJ OBJ;1;below;*OBJ SUBJ >> SUBJ OBJ;condition 2 >> condition 1;8185;567300;35
198;f12;f12;1;2;control;unrelated;SUBJ OBJ;1;above;SUBJ OBJ >> *OBJ SUBJ;condition 1 >> condition 2;13599;590577;37
198;f38;f38;1;3;filler;unrelated;grammatical;1;below;? >> grammatical;condition 3 >> condition 1;7296;597874;38
198;f27;f27;1;3;filler;pseudo_manner/COM;grammatical;1;below;? >> grammatical;condition 3 >> condition 1;15641;642107;40
198;f01;f01;1;2;control;related;SUBJ OBJfix;1;above;SUBJ OBJfix >> *OBJfix SUBJ;condition 1 >> condition 2;16817;671878;42
198;f41;f41;1;3;filler;unrelated (pseudo_manner);grammatical;1;below;? >> grammatical;condition 3 >> condition 1;18496;690376;43
198;f08;f08;1;2;control;related;SUBJ OBJfix;1;below;*OBJfix SUBJ >> SUBJ OBJfix;condition 2 >> condition 1;7993;706702;45
198;f30;f30;1;3;filler;unrelated;grammatical;1;above;grammatical >> ?;condition 1 >> condition 3;14198;720900;46
198;f04;f04;1;2;control;related;SUBJ OBJfix;1;above;SUBJ OBJfix >> *OBJfix SUBJ;condition 1 >> condition 2;14060;734961;47
198;f02;f02;1;2;control;related;SUBJ OBJfix;1;below;*OBJfix SUBJ >> SUBJ OBJfix;condition 2 >> condition 1;8013;753297;49
198;f31;f31;1;2;attention;unrelated;grammatical;1;above;grammatical >> *;condition 1 >> condition 2;14405;767703;50
198;f06;f06;1;2;control;related;SUBJ OBJfix;1;above;SUBJ OBJfix >> *OBJfix SUBJ;condition 1 >> condition 2;13670;781374;51
198;f20;f20;1;3;filler;pseudo_windef;grammatical;1;above;grammatical >> ?;condition 1 >> condition 3;14224;806961;53
198;f19;f19;1;2;attention;pseudo_windef;grammatical;1;below;* >> grammatical;condition 2 >> condition 1;17174;831953;55
198;f13;f13;1;2;control;unrelated;SUBJ OBJ;1;below;*OBJ SUBJ >> SUBJ OBJ;condition 2 >> condition 1;8123;840076;56
198;f22;f22;1;3;filler;pseudo_windef;grammatical;1;below;? >> grammatical;condition 3 >> condition 1;14035;865807;58
198;f16;f16;1;2;control;unrelated;SUBJ OBJ;1;below;*OBJ SUBJ >> SUBJ OBJ;condition 2 >> condition 1;8236;874043;59
198;f03;f03;1;2;control;related;SUBJ OBJfix;1;above;SUBJ OBJfix >> *OBJfix SUBJ;condition 1 >> condition 2;8929;897364;61
198;f21;f21;1;2;attention;pseudo_windef;grammatical;1;above;grammatical >> *;condition 1 >> condition 2;14129;911493;62
198;f09;f09;1;2;control;unrelated;SUBJ OBJ;1;above;SUBJ OBJ >> *OBJ SUBJ;condition 1 >> condition 2;7986;919480;63
198;f39;f39;1;2;attention;unrelated;grammatical;1;above;grammatical >> *;condition 1 >> condition 2;20357;949470;65
198;f43;f43;1;3;filler;unrelated;grammatical;1;above;grammatical >> ?;condition 1 >> condition 3;9732;970822;67
198;f11;f11;1;2;control;unrelated;SUBJ OBJ;1;below;*OBJ SUBJ >> SUBJ OBJ;condition 2 >> condition 1;4476;998851;69
198;f24;f24;1;2;attention;pseudo_windef;grammatical;1;above;grammatical >> *;condition 1 >> condition 2;10410;1009261;70
198;f35;f35;1;2;attention;pseudo_COM/manner;grammatical;1;below;* >> grammatical;condition 2 >> condition 1;15313;1024574;71
200;f44;f44;1;2;calibration(gr/ugr);unrelated;grammatical;1;above;grammatical >> *;condition 1 >> condition 2;13885;13887;0
200;f34;f34;1;3;calibration(gr/mittel);unrelated;grammatical;1;above;grammatical >> ?;condition 1 >> condition 3;14892;28784;1
200;f36;f36;1;3;calibration(gr/mittel);unrelated;?;3;above;? >> grammatical;condition 3 >> condition 1;19179;47968;2
200;f26;f26;1;2;calibration(gr/ugr);unrelated;grammatical;1;below;* >> grammatical;condition 2 >> condition 1;9480;57451;3
200;f18;f18;1;2;calibration(gr/ugr);pseudo_windef;grammatical;1;above;grammatical >> *;condition 1 >> condition 2;9780;67236;4
200;f25;f25;1;3;calibration(gr/mittel);unrelated;grammatical;1;below;? >> grammatical;condition 3 >> condition 1;9930;77170;5
200;f04;f04;1;2;control;related;SUBJ OBJfix;1;above;SUBJ OBJfix >> *OBJfix SUBJ;condition 1 >> condition 2;8663;85838;6
200;f45;f45;1;2;attention;unrelated;grammatical;1;above;grammatical >> *;condition 1 >> condition 2;13063;98905;7
200;f14;f14;1;2;control;unrelated;SUBJ OBJ;1;above;SUBJ OBJ >> *OBJ SUBJ;condition 1 >> condition 2;14748;113657;8
200;f29;f29;1;3;filler;unrelated;grammatical;1;below;? >> grammatical;condition 3 >> condition 1;9128;142075;10
200;f21;f21;1;2;attention;pseudo_windef;grammatical;1;above;grammatical >> *;condition 1 >> condition 2;9213;158878;12
200;f13;f13;1;2;control;unrelated;SUBJ OBJ;1;above;SUBJ OBJ >> *OBJ SUBJ;condition 1 >> condition 2;7714;166595;13
200;f16;f16;1;2;control;unrelated;SUBJ OBJ;1;above;SUBJ OBJ >> *OBJ SUBJ;condition 1 >> condition 2;7330;198014;15
200;f38;f38;1;3;filler;unrelated;grammatical;1;below;? >> grammatical;condition 3 >> condition 1;7963;205982;16
200;f01;f01;1;2;control;related;SUBJ OBJfix;1;above;SUBJ OBJfix >> *OBJfix SUBJ;condition 1 >> condition 2;10864;238202;18
200;f23;f23;1;3;filler;pseudo_windef;grammatical;1;above;grammatical >> ?;condition 1 >> condition 3;11180;249386;19
200;f03;f03;1;2;control;related;SUBJ OBJfix;1;above;SUBJ OBJfix >> *OBJfix SUBJ;condition 1 >> condition 2;10230;259621;20
200;f24;f24;1;2;attention;pseudo_windef;grammatical;1;below;* >> grammatical;condition 2 >> condition 1;8380;279906;22
200;f41;f41;1;3;filler;unrelated (pseudo_manner);grammatical;1;above;grammatical >> ?;condition 1 >> condition 3;17880;308542;24
200;f09;f09;1;2;control;unrelated;SUBJ OBJ;1;below;*OBJ SUBJ >> SUBJ OBJ;condition 2 >> condition 1;5296;322160;26
200;f22;f22;1;3;filler;pseudo_windef;grammatical;1;above;grammatical >> ?;condition 1 >> condition 3;9431;331594;27
200;f31;f31;1;2;attention;unrelated;grammatical;1;above;grammatical >> *;condition 1 >> condition 2;21831;360397;29
200;f46;f46;1;3;filler;unrelated;grammatical;1;above;grammatical >> ?;condition 1 >> condition 3;15797;393916;31
200;f15;f15;1;2;control;unrelated;SUBJ OBJ;1;below;*OBJ SUBJ >> SUBJ OBJ;condition 2 >> condition 1;8231;418669;33
200;f28;f28;1;2;filler;unrelated;grammatical;1;below;* >> grammatical;condition 2 >> condition 1;7713;426387;34
200;f19;f19;1;2;attention;pseudo_windef;grammatical;1;below;* >> grammatical;condition 2 >> condition 1;7413;448838;36
200;f10;f10;1;2;control;unrelated;SUBJ OBJ;1;above;SUBJ OBJ >> *OBJ SUBJ;condition 1 >> condition 2;12950;461791;37
200;f37;f37;1;2;filler;pseudo_CC/COM;grammatical;1;above;grammatical >> *;condition 1 >> condition 2;15531;487709;39
200;f08;f08;1;2;control;related;SUBJ OBJfix;1;below;*OBJfix SUBJ >> SUBJ OBJfix;condition 2 >> condition 1;9031;496744;40
200;f32;f32;1;2;attention;unrelated;grammatical;1;above;grammatical >> *;condition 1 >> condition 2;15448;523829;42
200;f27;f27;1;3;filler;pseudo_manner/COM;grammatical;1;above;grammatical >> ?;condition 1 >> condition 3;15147;548348;44
200;f43;f43;1;3;filler;unrelated;grammatical;1;above;grammatical >> ?;condition 1 >> condition 3;7197;567051;46
200;f05;f05;1;2;control;related;SUBJ OBJfix;1;above;SUBJ OBJfix >> *OBJfix SUBJ;condition 1 >> condition 2;10866;591320;48
200;f47;f47;1;2;filler;unrelated;grammatical;1;below;* >> grammatical;condition 2 >> condition 1;6280;597603;49
200;f20;f20;1;3;filler;pseudo_windef;grammatical;1;above;grammatical >> ?;condition 1 >> condition 3;13065;618789;51
200;f06;f06;1;2;control;related;SUBJ OBJfix;1;above;SUBJ OBJfix >> *OBJfix SUBJ;condition 1 >> condition 2;9748;635941;53
200;f39;f39;1;2;attention;unrelated;grammatical;1;below;* >> grammatical;condition 2 >> condition 1;8613;644558;54
200;f07;f07;1;2;control;related;SUBJ OBJfix;1;above;SUBJ OBJfix >> *OBJfix SUBJ;condition 1 >> condition 2;13715;658276;55
200;f30;f30;1;3;filler;unrelated;grammatical;1;above;grammatical >> ?;condition 1 >> condition 3;13815;685162;57
200;f40;f40;1;2;attention;unrelated;grammatical;1;above;grammatical >> *;condition 1 >> condition 2;16715;709614;59
200;f02;f02;1;2;control;related;SUBJ OBJfix;1;below;*OBJfix SUBJ >> SUBJ OBJfix;condition 2 >> condition 1;5713;715332;60
200;f42;f42;1;2;attention;unrelated (pseudo_manner);grammatical;1;below;* >> grammatical;condition 2 >> condition 1;10064;735684;62
200;f11;f11;1;2;control;unrelated;SUBJ OBJ;1;above;SUBJ OBJ >> *OBJ SUBJ;condition 1 >> condition 2;7447;743135;63
200;f48;f48;1;2;attention;unrelated;grammatical;1;above;grammatical >> *;condition 1 >> condition 2;12051;769804;65
200;f33;f33;1;3;filler;unrelated;grammatical;1;above;grammatical >> ?;condition 1 >> condition 3;20815;797223;67
200;f35;f35;1;2;attention;pseudo_COM/manner;grammatical;1;below;* >> grammatical;condition 2 >> condition 1;12548;818409;69
200;f12;f12;1;2;control;unrelated;SUBJ OBJ;1;below;*OBJ SUBJ >> SUBJ OBJ;condition 2 >> condition 1;13564;831976;70
200;f17;f17;1;2;attention;pseudo_windef;grammatical;1;above;grammatical >> *;condition 1 >> condition 2;9297;841277;71
201;f34;f34;1;3;calibration(gr/mittel);unrelated;grammatical;1;below;? >> grammatical;condition 3 >> condition 1;9966;9971;0
201;f36;f36;1;3;calibration(gr/mittel);unrelated;grammatical;1;above;grammatical >> ?;condition 1 >> condition 3;22176;32152;1
201;f26;f26;1;2;calibration(gr/ugr);unrelated;grammatical;1;below;* >> grammatical;condition 2 >> condition 1;10604;42771;2
201;f25;f25;1;3;calibration(gr/mittel);unrelated;grammatical;1;below;? >> grammatical;condition 3 >> condition 1;8459;51234;3
201;f44;f44;1;2;calibration(gr/ugr);unrelated;grammatical;1;below;* >> grammatical;condition 2 >> condition 1;10636;61875;4
201;f18;f18;1;2;calibration(gr/ugr);pseudo_windef;grammatical;1;below;* >> grammatical;condition 2 >> condition 1;8946;70824;5
201;f27;f27;1;3;filler;pseudo_manner/COM;grammatical;1;above;grammatical >> ?;condition 1 >> condition 3;9468;80296;6
201;f23;f23;1;3;filler;pseudo_windef;grammatical;1;below;? >> grammatical;condition 3 >> condition 1;6705;97235;8
201;f13;f13;1;2;control;unrelated;SUBJ OBJ;1;above;SUBJ OBJ >> *OBJ SUBJ;condition 1 >> condition 2;7774;118472;10
201;f43;f43;1;3;filler;unrelated;grammatical;1;above;grammatical >> ?;condition 1 >> condition 3;6846;125325;11
201;f17;f17;1;2;attention;pseudo_windef;grammatical;1;above;grammatical >> *;condition 1 >> condition 2;11791;143666;13
201;f31;f31;1;2;attention;unrelated;grammatical;1;below;* >> grammatical;condition 2 >> condition 1;11420;169437;15
201;f08;f08;1;2;control;related;SUBJ OBJfix;1;below;*OBJfix SUBJ >> SUBJ OBJfix;condition 2 >> condition 1;8872;178312;16
201;f02;f02;1;2;control;related;SUBJ OBJfix;1;above;SUBJ OBJfix >> *OBJfix SUBJ;condition 1 >> condition 2;11462;199839;18
201;f33;f33;1;3;filler;unrelated;grammatical;1;above;grammatical >> ?;condition 1 >> condition 3;23824;223666;19
201;f30;f30;1;3;filler;unrelated;grammatical;1;above;grammatical >> ?;condition 1 >> condition 3;11196;246072;21
201;f47;f47;1;2;filler;unrelated;grammatical;1;above;grammatical >> *;condition 1 >> condition 2;7326;262526;23
201;f41;f41;1;3;filler;unrelated (pseudo_manner);grammatical;1;above;grammatical >> ?;condition 1 >> condition 3;9328;281951;25
201;f29;f29;1;3;filler;unrelated;grammatical;1;above;grammatical >> ?;condition 1 >> condition 3;8145;297501;27
201;f14;f14;1;2;control;unrelated;SUBJ OBJ;1;below;*OBJ SUBJ >> SUBJ OBJ;condition 2 >> condition 1;14579;312083;28
201;f20;f20;1;3;filler;pseudo_windef;grammatical;1;above;grammatical >> ?;condition 1 >> condition 3;9213;334984;30
201;f38;f38;1;3;filler;unrelated;grammatical;1;below;? >> grammatical;condition 3 >> condition 1;7079;355731;32
201;f09;f09;1;2;control;unrelated;SUBJ OBJ;1;below;*OBJ SUBJ >> SUBJ OBJ;condition 2 >> condition 1;6577;362311;33
201;f42;f42;1;2;attention;unrelated (pseudo_manner);grammatical;1;below;* >> grammatical;condition 2 >> condition 1;9632;379506;35
201;f15;f15;1;2;control;unrelated;SUBJ OBJ;1;below;*OBJ SUBJ >> SUBJ OBJ;condition 2 >> condition 1;6664;386172;36
201;f28;f28;1;2;filler;unrelated;grammatical;1;above;grammatical >> *;condition 1 >> condition 2;7841;403463;38
201;f12;f12;1;2;control;unrelated;SUBJ OBJ;1;above;SUBJ OBJ >> *OBJ SUBJ;condition 1 >> condition 2;12114;425185;40
201;f21;f21;1;2;attention;pseudo_windef;grammatical;1;above;grammatical >> *;condition 1 >> condition 2;11321;436508;41
201;f07;f07;1;2;control;related;SUBJ OBJfix;1;below;*OBJfix SUBJ >> SUBJ OBJfix;condition 2 >> condition 1;7807;458130;43
201;f39;f39;1;2;attention;unrelated;grammatical;1;below;* >> grammatical;condition 2 >> condition 1;13565;471699;44
201;f05;f05;1;2;control;related;SUBJ OBJfix;1;above;SUBJ OBJfix >> *OBJfix SUBJ;condition 1 >> condition 2;6482;488764;46
201;f35;f35;1;2;attention;pseudo_COM/manner;grammatical;1;below;* >> grammatical;condition 2 >> condition 1;25034;513801;47
201;f16;f16;1;2;control;unrelated;SUBJ OBJ;1;above;SUBJ OBJ >> *OBJ SUBJ;condition 1 >> condition 2;8004;521811;48
201;f10;f10;1;2;control;unrelated;SUBJ OBJ;1;below;*OBJ SUBJ >> SUBJ OBJ;condition 2 >> condition 1;5354;537251;50
201;f24;f24;1;2;attention;pseudo_windef;grammatical;1;below;* >> grammatical;condition 2 >> condition 1;9157;546413;51
201;f06;f06;1;2;control;related;SUBJ OBJfix;1;below;*OBJfix SUBJ >> SUBJ OBJfix;condition 2 >> condition 1;13291;576349;53
201;f32;f32;1;2;attention;unrelated;grammatical;1;above;grammatical >> *;condition 1 >> condition 2;12055;588407;54
201;f22;f22;1;3;filler;pseudo_windef;grammatical;1;below;? >> grammatical;condition 3 >> condition 1;12952;613842;56
201;f45;f45;1;2;attention;unrelated;grammatical;1;above;grammatical >> *;condition 1 >> condition 2;11850;639817;58
201;f37;f37;1;2;filler;pseudo_CC/COM;grammatical;1;below;* >> grammatical;condition 2 >> condition 1;9480;661738;60
201;f19;f19;1;2;attention;pseudo_windef;grammatical;1;above;grammatical >> *;condition 1 >> condition 2;8870;680595;62
201;f04;f04;1;2;control;related;SUBJ OBJfix;1;above;SUBJ OBJfix >> *OBJfix SUBJ;condition 1 >> condition 2;8743;689341;63
201;f11;f11;1;2;control;unrelated;SUBJ OBJ;1;below;*OBJ SUBJ >> SUBJ OBJ;condition 2 >> condition 1;6729;706611;65
201;f46;f46;1;3;filler;unrelated;grammatical;1;below;? >> grammatical;condition 3 >> condition 1;6484;713098;66
201;f03;f03;1;2;control;related;SUBJ OBJfix;1;below;*OBJfix SUBJ >> SUBJ OBJfix;condition 2 >> condition 1;17116;730217;67
201;f40;f40;1;2;attention;unrelated;grammatical;1;below;* >> grammatical;condition 2 >> condition 1;12756;752254;69
201;f01;f01;1;2;control;related;SUBJ OBJfix;1;below;*OBJfix SUBJ >> SUBJ OBJfix;condition 2 >> condition 1;6492;758749;70
201;f48;f48;1;2;attention;unrelated;grammatical;1;below;* >> grammatical;condition 2 >> condition 1;17620;776372;71
207;f34;f34;1;3;calibration(gr/mittel);unrelated;grammatical;1;below;? >> grammatical;condition 3 >> condition 1;11559;11562;0
207;f44;f44;1;2;calibration(gr/ugr);unrelated;grammatical;1;above;grammatical >> *;condition 1 >> condition 2;9677;21241;1
207;f36;f36;1;3;calibration(gr/mittel);unrelated;grammatical;1;below;? >> grammatical;condition 3 >> condition 1;15019;36263;2
207;f26;f26;1;2;calibration(gr/ugr);unrelated;grammatical;1;above;grammatical >> *;condition 1 >> condition 2;8586;44852;3
207;f25;f25;1;3;calibration(gr/mittel);unrelated;grammatical;1;above;grammatical >> ?;condition 1 >> condition 3;16663;61516;4
207;f18;f18;1;2;calibration(gr/ugr);pseudo_windef;grammatical;1;below;* >> grammatical;condition 2 >> condition 1;6431;67951;5
207;f19;f19;1;2;attention;pseudo_windef;grammatical;1;below;* >> grammatical;condition 2 >> condition 1;6735;74689;6
207;f15;f15;1;2;control;unrelated;SUBJ OBJ;1;above;SUBJ OBJ >> *OBJ SUBJ;condition 1 >> condition 2;6317;81008;7
207;f22;f22;1;3;filler;pseudo_windef;grammatical;1;above;grammatical >> ?;condition 1 >> condition 3;6535;99388;9
207;f06;f06;1;2;control;related;SUBJ OBJfix;1;below;*OBJfix SUBJ >> SUBJ OBJfix;condition 2 >> condition 1;15676;133235;11
207;f31;f31;1;2;attention;unrelated;grammatical;1;below;* >> grammatical;condition 2 >> condition 1;9386;142623;12
207;f13;f13;1;2;control;unrelated;SUBJ OBJ;1;below;*OBJ SUBJ >> SUBJ OBJ;condition 2 >> condition 1;6881;169076;14
207;f46;f46;1;3;filler;unrelated;grammatical;1;below;? >> grammatical;condition 3 >> condition 1;17373;186450;15
207;f47;f47;1;2;filler;unrelated;grammatical;1;above;grammatical >> *;condition 1 >> condition 2;7199;209846;17
207;f27;f27;1;3;filler;pseudo_manner/COM;grammatical;1;above;grammatical >> ?;condition 1 >> condition 3;15209;257399;19
207;f10;f10;1;2;control;unrelated;SUBJ OBJ;1;above;SUBJ OBJ >> *OBJ SUBJ;condition 1 >> condition 2;7507;264908;20
207;f30;f30;1;3;filler;unrelated;grammatical;1;below;? >> grammatical;condition 3 >> condition 1;9480;297170;22
207;f40;f40;1;2;attention;unrelated;grammatical;1;above;grammatical >> *;condition 1 >> condition 2;10522;314299;24
207;f04;f04;1;2;control;related;SUBJ OBJfix;1;above;SUBJ OBJfix >> *OBJfix SUBJ;condition 1 >> condition 2;11144;325447;25
207;f17;f17;1;2;attention;pseudo_windef;grammatical;1;above;grammatical >> *;condition 1 >> condition 2;7758;403682;27
207;f43;f43;1;3;filler;unrelated;grammatical;1;above;grammatical >> ?;condition 1 >> condition 3;6714;424897;29
207;f41;f41;1;3;filler;unrelated (pseudo_manner);grammatical;1;above;grammatical >> ?;condition 1 >> condition 3;12729;448355;31
207;f11;f11;1;2;control;unrelated;SUBJ OBJ;1;above;SUBJ OBJ >> *OBJ SUBJ;condition 1 >> condition 2;8255;456612;32
207;f16;f16;1;2;control;unrelated;SUBJ OBJ;1;above;SUBJ OBJ >> *OBJ SUBJ;condition 1 >> condition 2;8288;475206;34
207;f33;f33;1;3;filler;unrelated;?;3;above;? >> grammatical;condition 3 >> condition 1;11897;487107;35
207;f29;f29;1;3;filler;unrelated;grammatical;1;above;grammatical >> ?;condition 1 >> condition 3;12428;514329;37
207;f01;f01;1;2;control;related;SUBJ OBJfix;1;below;*OBJfix SUBJ >> SUBJ OBJfix;condition 2 >> condition 1;5857;520188;38
207;f35;f35;1;2;attention;pseudo_COM/manner;grammatical;1;above;grammatical >> *;condition 1 >> condition 2;31409;559229;40
207;f48;f48;1;2;attention;unrelated;grammatical;1;below;* >> grammatical;condition 2 >> condition 1;8271;587693;42
207;f09;f09;1;2;control;unrelated;SUBJ OBJ;1;below;*OBJ SUBJ >> SUBJ OBJ;condition 2 >> condition 1;6809;594506;43
207;f20;f20;1;3;filler;pseudo_windef;grammatical;1;above;grammatical >> ?;condition 1 >> condition 3;11054;612862;45
207;f28;f28;1;2;filler;unrelated;grammatical;1;below;* >> grammatical;condition 2 >> condition 1;9260;644100;47
207;f08;f08;1;2;control;related;SUBJ OBJfix;1;below;*OBJfix SUBJ >> SUBJ OBJfix;condition 2 >> condition 1;10038;654139;48
207;f07;f07;1;2;control;related;SUBJ OBJfix;1;above;SUBJ OBJfix >> *OBJfix SUBJ;condition 1 >> condition 2;6357;697927;50
207;f38;f38;1;3;filler;unrelated;grammatical;1;below;? >> grammatical;condition 3 >> condition 1;4871;702800;51
207;f45;f45;1;2;attention;unrelated;grammatical;1;below;* >> grammatical;condition 2 >> condition 1;10431;729383;53
207;f24;f24;1;2;attention;pseudo_windef;grammatical;1;above;grammatical >> *;condition 1 >> condition 2;7705;746867;55
207;f12;f12;1;2;control;unrelated;SUBJ OBJ;1;below;*OBJ SUBJ >> SUBJ OBJ;condition 2 >> condition 1;5024;761828;57
207;f39;f39;1;2;attention;unrelated;grammatical;1;below;* >> grammatical;condition 2 >> condition 1;8913;770743;58
207;f32;f32;1;2;attention;unrelated;grammatical;1;above;grammatical >> *;condition 1 >> condition 2;10239;792369;60
207;f03;f03;1;2;control;related;SUBJ OBJfix;1;above;SUBJ OBJfix >> *OBJfix SUBJ;condition 1 >> condition 2;10027;812319;62
207;f37;f37;1;2;filler;pseudo_CC/COM;grammatical;1;above;grammatical >> *;condition 1 >> condition 2;16951;829271;63
207;f05;f05;1;2;control;related;SUBJ OBJfix;1;below;*OBJfix SUBJ >> SUBJ OBJfix;condition 2 >> condition 1;7180;836455;64
207;f21;f21;1;2;attention;pseudo_windef;grammatical;1;above;grammatical >> *;condition 1 >> condition 2;11275;857163;66
207;f14;f14;1;2;control;unrelated;SUBJ OBJ;1;below;*OBJ SUBJ >> SUBJ OBJ;condition 2 >> condition 1;6861;876012;68
207;f23;f23;1;3;filler;pseudo_windef;grammatical;1;below;? >> grammatical;condition 3 >> condition 1;9160;885175;69
207;f02;f02;1;2;control;related;SUBJ OBJfix;1;above;SUBJ OBJfix >> *OBJfix SUBJ;condition 1 >> condition 2;5271;890451;70
207;f42;f42;1;2;attention;unrelated (pseudo_manner);grammatical;1;above;grammatical >> *;condition 1 >> condition 2;10752;901206;71
208;f36;f36;1;3;calibration(gr/mittel);unrelated;?;3;below;grammatical >> ?;condition 1 >> condition 3;8317;8319;0
208;f34;f34;1;3;calibration(gr/mittel);unrelated;grammatical;1;below;? >> grammatical;condition 3 >> condition 1;7244;15564;1
208;f25;f25;1;3;calibration(gr/mittel);unrelated;grammatical;1;above;grammatical >> ?;condition 1 >> condition 3;19146;34711;2
208;f44;f44;1;2;calibration(gr/ugr);unrelated;grammatical;1;below;* >> grammatical;condition 2 >> condition 1;7523;42235;3
208;f18;f18;1;2;calibration(gr/ugr);pseudo_windef;grammatical;1;below;* >> grammatical;condition 2 >> condition 1;8108;50344;4
208;f26;f26;1;2;calibration(gr/ugr);unrelated;grammatical;1;below;* >> grammatical;condition 2 >> condition 1;8526;58871;5
208;f15;f15;1;2;control;unrelated;SUBJ OBJ;1;above;SUBJ OBJ >> *OBJ SUBJ;condition 1 >> condition 2;8875;67747;6
208;f32;f32;1;2;attention;unrelated;grammatical;1;below;* >> grammatical;condition 2 >> condition 1;25622;93370;7
208;f05;f05;1;2;control;related;SUBJ OBJfix;1;above;SUBJ OBJfix >> *OBJfix SUBJ;condition 1 >> condition 2;7411;114526;9
208;f37;f37;1;2;filler;pseudo_CC/COM;grammatical;1;below;* >> grammatical;condition 2 >> condition 1;6539;121066;10
208;f08;f08;1;2;control;related;SUBJ OBJfix;1;above;SUBJ OBJfix >> *OBJfix SUBJ;condition 1 >> condition 2;5565;139389;12
208;f46;f46;1;3;filler;unrelated;?;3;below;grammatical >> ?;condition 1 >> condition 3;15373;154764;13
208;f31;f31;1;2;attention;unrelated;grammatical;1;above;grammatical >> *;condition 1 >> condition 2;9476;176776;15
208;f01;f01;1;2;control;related;SUBJ OBJfix;1;above;SUBJ OBJfix >> *OBJfix SUBJ;condition 1 >> condition 2;7303;184081;16
208;f22;f22;1;3;filler;pseudo_windef;?;3;below;grammatical >> ?;condition 1 >> condition 3;9635;201063;18
208;f14;f14;1;2;control;unrelated;SUBJ OBJ;1;above;SUBJ OBJ >> *OBJ SUBJ;condition 1 >> condition 2;5974;217429;20
208;f40;f40;1;2;attention;unrelated;grammatical;1;below;* >> grammatical;condition 2 >> condition 1;19093;236523;21
208;f02;f02;1;2;control;related;SUBJ OBJfix;1;below;*OBJfix SUBJ >> SUBJ OBJfix;condition 2 >> condition 1;7315;251735;23
208;f20;f20;1;3;filler;pseudo_windef;grammatical;1;below;? >> grammatical;condition 3 >> condition 1;7836;259572;24
208;f21;f21;1;2;attention;pseudo_windef;grammatical;1;below;* >> grammatical;condition 2 >> condition 1;8078;278502;26
208;f38;f38;1;3;filler;unrelated;grammatical;1;below;? >> grammatical;condition 3 >> condition 1;8971;300102;28
208;f12;f12;1;2;control;unrelated;SUBJ OBJ;1;below;*OBJ SUBJ >> SUBJ OBJ;condition 2 >> condition 1;5069;327823;30
208;f35;f35;1;2;attention;pseudo_COM/manner;grammatical;1;below;* >> grammatical;condition 2 >> condition 1;10905;338729;31
208;f28;f28;1;2;filler;unrelated;grammatical;1;below;* >> grammatical;condition 2 >> condition 1;4059;353805;33
208;f33;f33;1;3;filler;unrelated;?;3;below;grammatical >> ?;condition 1 >> condition 3;6645;395141;35
208;f27;f27;1;3;filler;pseudo_manner/COM;grammatical;1;below;? >> grammatical;condition 3 >> condition 1;8206;430659;37
208;f03;f03;1;2;control;related;SUBJ OBJfix;1;above;SUBJ OBJfix >> *OBJfix SUBJ;condition 1 >> condition 2;6541;437201;38
208;f19;f19;1;2;attention;pseudo_windef;grammatical;1;above;grammatical >> *;condition 1 >> condition 2;4798;449885;40
208;f04;f04;1;2;control;related;SUBJ OBJfix;1;above;SUBJ OBJfix >> *OBJfix SUBJ;condition 1 >> condition 2;8254;458140;41
208;f07;f07;1;2;control;related;SUBJ OBJfix;1;above;SUBJ OBJfix >> *OBJfix SUBJ;condition 1 >> condition 2;6207;471667;43
208;f24;f24;1;2;attention;pseudo_windef;grammatical;1;below;* >> grammatical;condition 2 >> condition 1;6648;478315;44
208;f30;f30;1;3;filler;unrelated;?;3;below;grammatical >> ?;condition 1 >> condition 3;11596;502922;46
208;f29;f29;1;3;filler;unrelated;grammatical;1;below;? >> grammatical;condition 3 >> condition 1;29271;548653;48
208;f41;f41;1;3;filler;unrelated (pseudo_manner);?;3;below;grammatical >> ?;condition 1 >> condition 3;6285;559853;50
208;f47;f47;1;2;filler;unrelated;grammatical;1;below;* >> grammatical;condition 2 >> condition 1;8998;576224;52
208;f16;f16;1;2;control;unrelated;SUBJ OBJ;1;above;SUBJ OBJ >> *OBJ SUBJ;condition 1 >> condition 2;7897;590501;54
208;f39;f39;1;2;attention;unrelated;grammatical;1;below;* >> grammatical;condition 2 >> condition 1;6686;597188;55
208;f10;f10;1;2;control;unrelated;SUBJ OBJ;1;below;*OBJ SUBJ >> SUBJ OBJ;condition 2 >> condition 1;6526;603715;56
208;f11;f11;1;2;control;unrelated;SUBJ OBJ;1;below;*OBJ SUBJ >> SUBJ OBJ;condition 2 >> condition 1;3783;616988;58
208;f42;f42;1;2;attention;unrelated (pseudo_manner);grammatical;1;above;grammatical >> *;condition 1 >> condition 2;10099;627088;59
208;f13;f13;1;2;control;unrelated;SUBJ OBJ;1;above;SUBJ OBJ >> *OBJ SUBJ;condition 1 >> condition 2;6404;633493;60
208;f06;f06;1;2;control;related;SUBJ OBJfix;1;above;SUBJ OBJfix >> *OBJfix SUBJ;condition 1 >> condition 2;5743;666652;62
208;f43;f43;1;3;filler;unrelated;grammatical;1;below;? >> grammatical;condition 3 >> condition 1;4287;670940;63
208;f23;f23;1;3;filler;pseudo_windef;?;3;below;grammatical >> ?;condition 1 >> condition 3;5261;682088;65
208;f48;f48;1;2;attention;unrelated;grammatical;1;below;* >> grammatical;condition 2 >> condition 1;6085;704009;67
208;f09;f09;1;2;control;unrelated;SUBJ OBJ;1;above;SUBJ OBJ >> *OBJ SUBJ;condition 1 >> condition 2;7016;711026;68
208;f45;f45;1;2;attention;unrelated;grammatical;1;below;* >> grammatical;condition 2 >> condition 1;10955;729454;70
208;f17;f17;1;2;attention;pseudo_windef;grammatical;1;below;* >> grammatical;condition 2 >> condition 1;10724;740178;71
209;f44;f44;1;2;calibration(gr/ugr);unrelated;grammatical;1;below;* >> grammatical;condition 2 >> condition 1;7704;7706;0
209;f25;f25;1;3;calibration(gr/mittel);unrelated;grammatical;1;below;? >> grammatical;condition 3 >> condition 1;4700;12407;1
209;f18;f18;1;2;calibration(gr/ugr);pseudo_windef;grammatical;1;below;* >> grammatical;condition 2 >> condition 1;6897;19306;2
209;f34;f34;1;3;calibration(gr/mittel);unrelated;grammatical;1;above;grammatical >> ?;condition 1 >> condition 3;5320;24627;3
209;f26;f26;1;2;calibration(gr/ugr);unrelated;grammatical;1;above;grammatical >> *;condition 1 >> condition 2;12902;37530;4
209;f36;f36;1;3;calibration(gr/mittel);unrelated;grammatical;1;below;? >> grammatical;condition 3 >> condition 1;9297;46828;5
209;f29;f29;1;3;filler;unrelated;grammatical;1;above;grammatical >> ?;condition 1 >> condition 3;7144;53974;6
209;f17;f17;1;2;attention;pseudo_windef;grammatical;1;below;* >> grammatical;condition 2 >> condition 1;7946;73495;8
209;f10;f10;1;2;control;unrelated;SUBJ OBJ;1;below;*OBJ SUBJ >> SUBJ OBJ;condition 2 >> condition 1;4344;77841;9
209;f42;f42;1;2;attention;unrelated (pseudo_manner);grammatical;1;below;* >> grammatical;condition 2 >> condition 1;10223;103782;11
209;f01;f01;1;2;control;related;SUBJ OBJfix;1;below;*OBJfix SUBJ >> SUBJ OBJfix;condition 2 >> condition 1;7165;124699;13
209;f47;f47;1;2;filler;unrelated;grammatical;1;below;* >> grammatical;condition 2 >> condition 1;5836;130537;14
209;f35;f35;1;2;attention;pseudo_COM/manner;grammatical;1;below;* >> grammatical;condition 2 >> condition 1;11436;152755;16
209;f03;f03;1;2;control;related;SUBJ OBJfix;1;above;SUBJ OBJfix >> *OBJfix SUBJ;condition 1 >> condition 2;9598;171413;18
209;f38;f38;1;3;filler;unrelated;grammatical;1;above;grammatical >> ?;condition 1 >> condition 3;8153;179566;19
209;f48;f48;1;2;attention;unrelated;grammatical;1;above;grammatical >> *;condition 1 >> condition 2;12152;203917;21
209;f41;f41;1;3;filler;unrelated (pseudo_manner);grammatical;1;below;? >> grammatical;condition 3 >> condition 1;13669;229809;23
209;f32;f32;1;2;attention;unrelated;grammatical;1;below;* >> grammatical;condition 2 >> condition 1;7728;246898;25
209;f06;f06;1;2;control;related;SUBJ OBJfix;1;below;*OBJfix SUBJ >> SUBJ OBJfix;condition 2 >> condition 1;7741;254639;26
209;f33;f33;1;3;filler;unrelated;grammatical;1;above;grammatical >> ?;condition 1 >> condition 3;30066;297545;28
209;f23;f23;1;3;filler;pseudo_windef;grammatical;1;above;grammatical >> ?;condition 1 >> condition 3;6539;311747;30
209;f14;f14;1;2;control;unrelated;SUBJ OBJ;1;below;*OBJ SUBJ >> SUBJ OBJ;condition 2 >> condition 1;4101;315849;31
209;f19;f19;1;2;attention;pseudo_windef;grammatical;1;above;grammatical >> *;condition 1 >> condition 2;7067;336016;33
209;f27;f27;1;3;filler;pseudo_manner/COM;grammatical;1;above;grammatical >> ?;condition 1 >> condition 3;11333;356109;35
209;f40;f40;1;2;attention;unrelated;grammatical;1;above;grammatical >> *;condition 1 >> condition 2;9780;374056;37
209;f15;f15;1;2;control;unrelated;SUBJ OBJ;1;above;SUBJ OBJ >> *OBJ SUBJ;condition 1 >> condition 2;14331;395280;39
209;f37;f37;1;2;filler;pseudo_CC/COM;grammatical;1;below;* >> grammatical;condition 2 >> condition 1;10311;405593;40
209;f16;f16;1;2;control;unrelated;SUBJ OBJ;1;above;SUBJ OBJ >> *OBJ SUBJ;condition 1 >> condition 2;7021;412615;41
209;f07;f07;1;2;control;related;SUBJ OBJfix;1;below;*OBJfix SUBJ >> SUBJ OBJfix;condition 2 >> condition 1;5798;423898;43
209;f22;f22;1;3;filler;pseudo_windef;grammatical;1;above;grammatical >> ?;condition 1 >> condition 3;5856;429756;44
209;f04;f04;1;2;control;related;SUBJ OBJfix;1;above;SUBJ OBJfix >> *OBJfix SUBJ;condition 1 >> condition 2;6168;435925;45
209;f28;f28;1;2;filler;unrelated;grammatical;1;below;* >> grammatical;condition 2 >> condition 1;5491;448580;47
209;f05;f05;1;2;control;related;SUBJ OBJfix;1;above;SUBJ OBJfix >> *OBJfix SUBJ;condition 1 >> condition 2;6302;463057;49
209;f20;f20;1;3;filler;pseudo_windef;grammatical;1;above;grammatical >> ?;condition 1 >> condition 3;5296;468355;50
209;f39;f39;1;2;attention;unrelated;grammatical;1;above;grammatical >> *;condition 1 >> condition 2;13210;488725;52
209;f12;f12;1;2;control;unrelated;SUBJ OBJ;1;below;*OBJ SUBJ >> SUBJ OBJ;condition 2 >> condition 1;6780;503173;54
209;f46;f46;1;3;filler;unrelated;grammatical;1;above;grammatical >> ?;condition 1 >> condition 3;7457;510630;55
209;f02;f02;1;2;control;related;SUBJ OBJfix;1;above;SUBJ OBJfix >> *OBJfix SUBJ;condition 1 >> condition 2;4983;515614;56
209;f24;f24;1;2;attention;pseudo_windef;grammatical;1;below;* >> grammatical;condition 2 >> condition 1;13974;537838;58
209;f08;f08;1;2;control;related;SUBJ OBJfix;1;above;SUBJ OBJfix >> *OBJfix SUBJ;condition 1 >> condition 2;7471;545311;59
209;f31;f31;1;2;attention;unrelated;grammatical;1;below;* >> grammatical;condition 2 >> condition 1;8092;565401;61
209;f13;f13;1;2;control;unrelated;SUBJ OBJ;1;below;*OBJ SUBJ >> SUBJ OBJ;condition 2 >> condition 1;4986;570389;62
209;f45;f45;1;2;attention;unrelated;grammatical;1;below;* >> grammatical;condition 2 >> condition 1;16067;595783;64
209;f21;f21;1;2;attention;pseudo_windef;grammatical;1;below;* >> grammatical;condition 2 >> condition 1;7601;614984;66
209;f11;f11;1;2;control;unrelated;SUBJ OBJ;1;above;SUBJ OBJ >> *OBJ SUBJ;condition 1 >> condition 2;5534;620519;67
209;f30;f30;1;3;filler;unrelated;grammatical;1;above;grammatical >> ?;condition 1 >> condition 3;7975;634823;69
209;f09;f09;1;2;control;unrelated;SUBJ OBJ;1;below;*OBJ SUBJ >> SUBJ OBJ;condition 2 >> condition 1;3957;638781;70
209;f43;f43;1;3;filler;unrelated;grammatical;1;above;grammatical >> ?;condition 1 >> condition 3;5123;643905;71
213;f18;f18;1;2;calibration(gr/ugr);pseudo_windef;grammatical;1;below;* >> grammatical;condition 2 >> condition 1;6807;6810;0
213;f36;f36;1;3;calibration(gr/mittel);unrelated;?;3;above;? >> grammatical;condition 3 >> condition 1;17039;23856;1
213;f25;f25;1;3;calibration(gr/mittel);unrelated;grammatical;1;below;? >> grammatical;condition 3 >> condition 1;6962;30825;2
213;f34;f34;1;3;calibration(gr/mittel);unrelated;grammatical;1;above;grammatical >> ?;condition 1 >> condition 3;8320;39152;3
213;f44;f44;1;2;calibration(gr/ugr);unrelated;grammatical;1;below;* >> grammatical;condition 2 >> condition 1;5941;45097;4
213;f26;f26;1;2;calibration(gr/ugr);unrelated;grammatical;1;above;grammatical >> *;condition 1 >> condition 2;9399;54499;5
213;f33;f33;1;3;filler;unrelated;grammatical;1;above;grammatical >> ?;condition 1 >> condition 3;10933;65439;6
213;f02;f02;1;2;control;related;SUBJ OBJfix;1;above;SUBJ OBJfix >> *OBJfix SUBJ;condition 1 >> condition 2;6405;71850;7
213;f11;f11;1;2;control;unrelated;SUBJ OBJ;1;below;*OBJ SUBJ >> SUBJ OBJ;condition 2 >> condition 1;4318;84151;9
213;f17;f17;1;2;attention;pseudo_windef;grammatical;1;above;grammatical >> *;condition 1 >> condition 2;7032;91186;10
213;f22;f22;1;3;filler;pseudo_windef;grammatical;1;above;grammatical >> ?;condition 1 >> condition 3;8824;113217;12
213;f09;f09;1;2;control;unrelated;SUBJ OBJ;1;above;SUBJ OBJ >> *OBJ SUBJ;condition 1 >> condition 2;6426;119646;13
213;f32;f32;1;2;attention;unrelated;grammatical;1;above;grammatical >> *;condition 1 >> condition 2;9829;143476;15
213;f06;f06;1;2;control;related;SUBJ OBJfix;1;below;*OBJfix SUBJ >> SUBJ OBJfix;condition 2 >> condition 1;3536;147016;16
213;f01;f01;1;2;control;related;SUBJ OBJfix;1;above;SUBJ OBJfix >> *OBJfix SUBJ;condition 1 >> condition 2;4733;158730;18
213;f43;f43;1;3;filler;unrelated;grammatical;1;above;grammatical >> ?;condition 1 >> condition 3;5471;164206;19
213;f12;f12;1;2;control;unrelated;SUBJ OBJ;1;above;SUBJ OBJ >> *OBJ SUBJ;condition 1 >> condition 2;4405;168616;20
213;f21;f21;1;2;attention;pseudo_windef;grammatical;1;below;* >> grammatical;condition 2 >> condition 1;15559;191238;22
213;f08;f08;1;2;control;related;SUBJ OBJfix;1;above;SUBJ OBJfix >> *OBJfix SUBJ;condition 1 >> condition 2;5024;196264;23
213;f10;f10;1;2;control;unrelated;SUBJ OBJ;1;above;SUBJ OBJ >> *OBJ SUBJ;condition 1 >> condition 2;5254;209158;25
213;f41;f41;1;3;filler;unrelated (pseudo_manner);grammatical;1;above;grammatical >> ?;condition 1 >> condition 3;6770;215933;26
213;f15;f15;1;2;control;unrelated;SUBJ OBJ;1;below;*OBJ SUBJ >> SUBJ OBJ;condition 2 >> condition 1;5091;221027;27
213;f35;f35;1;2;attention;pseudo_COM/manner;grammatical;1;below;* >> grammatical;condition 2 >> condition 1;10057;238206;29
213;f31;f31;1;2;attention;unrelated;grammatical;1;above;grammatical >> *;condition 1 >> condition 2;8454;258572;31
213;f38;f38;1;3;filler;unrelated;grammatical;1;above;grammatical >> ?;condition 1 >> condition 3;4612;275532;33
213;f13;f13;1;2;control;unrelated;SUBJ OBJ;1;below;*OBJ SUBJ >> SUBJ OBJ;condition 2 >> condition 1;4086;285627;35
213;f37;f37;1;2;filler;pseudo_CC/COM;grammatical;1;above;grammatical >> *;condition 1 >> condition 2;5367;290998;36
213;f23;f23;1;3;filler;pseudo_windef;grammatical;1;below;? >> grammatical;condition 3 >> condition 1;5761;304867;38
213;f19;f19;1;2;attention;pseudo_windef;grammatical;1;below;* >> grammatical;condition 2 >> condition 1;7310;319011;40
213;f07;f07;1;2;control;related;SUBJ OBJfix;1;above;SUBJ OBJfix >> *OBJfix SUBJ;condition 1 >> condition 2;6178;332189;42
213;f40;f40;1;2;attention;unrelated;grammatical;1;above;grammatical >> *;condition 1 >> condition 2;10889;343080;43
213;f03;f03;1;2;control;related;SUBJ OBJfix;1;above;SUBJ OBJfix >> *OBJfix SUBJ;condition 1 >> condition 2;4607;353524;45
213;f47;f47;1;2;filler;unrelated;grammatical;1;below;* >> grammatical;condition 2 >> condition 1;6280;359806;46
213;f04;f04;1;2;control;related;SUBJ OBJfix;1;below;*OBJfix SUBJ >> SUBJ OBJfix;condition 2 >> condition 1;3995;363806;47
213;f20;f20;1;3;filler;pseudo_windef;grammatical;1;below;? >> grammatical;condition 3 >> condition 1;12124;380799;49
213;f28;f28;1;2;filler;unrelated;grammatical;1;above;grammatical >> *;condition 1 >> condition 2;9019;394448;51
213;f39;f39;1;2;attention;unrelated;grammatical;1;below;* >> grammatical;condition 2 >> condition 1;17179;418632;53
213;f29;f29;1;3;filler;unrelated;grammatical;1;above;grammatical >> ?;condition 1 >> condition 3;5701;430144;55
213;f27;f27;1;3;filler;pseudo_manner/COM;grammatical;1;above;grammatical >> ?;condition 1 >> condition 3;5995;441984;57
213;f30;f30;1;3;filler;unrelated;grammatical;1;above;grammatical >> ?;condition 1 >> condition 3;9259;461248;59
213;f05;f05;1;2;control;related;SUBJ OBJfix;1;below;*OBJfix SUBJ >> SUBJ OBJfix;condition 2 >> condition 1;3515;464769;60
213;f14;f14;1;2;control;unrelated;SUBJ OBJ;1;below;*OBJ SUBJ >> SUBJ OBJ;condition 2 >> condition 1;3952;472833;62
213;f42;f42;1;2;attention;unrelated (pseudo_manner);grammatical;1;below;* >> grammatical;condition 2 >> condition 1;7501;480343;63
213;f24;f24;1;2;attention;pseudo_windef;grammatical;1;below;* >> grammatical;condition 2 >> condition 1;7030;491107;65
213;f46;f46;1;3;filler;unrelated;grammatical;1;above;grammatical >> ?;condition 1 >> condition 3;5365;501310;67
213;f16;f16;1;2;control;unrelated;SUBJ OBJ;1;below;*OBJ SUBJ >> SUBJ OBJ;condition 2 >> condition 1;4013;505339;68
213;f45;f45;1;2;attention;unrelated;grammatical;1;below;* >> grammatical;condition 2 >> condition 1;7686;517357;70
213;f48;f48;1;2;attention;unrelated;grammatical;1;above;grammatical >> *;condition 1 >> condition 2;8185;525547;71
214;f25;f25;1;3;calibration(gr/mittel);unrelated;grammatical;1;below;? >> grammatical;condition 3 >> condition 1;14015;14020;0
214;f44;f44;1;2;calibration(gr/ugr);unrelated;grammatical;1;above;grammatical >> *;condition 1 >> condition 2;18218;32242;1
214;f18;f18;1;2;calibration(gr/ugr);pseudo_windef;grammatical;1;above;grammatical >> *;condition 1 >> condition 2;12503;44747;2
214;f26;f26;1;2;calibration(gr/ugr);unrelated;grammatical;1;below;* >> grammatical;condition 2 >> condition 1;17516;62265;3
214;f36;f36;1;3;calibration(gr/mittel);unrelated;?;3;above;? >> grammatical;condition 3 >> condition 1;52906;115172;4
214;f34;f34;1;3;calibration(gr/mittel);unrelated;grammatical;1;above;grammatical >> ?;condition 1 >> condition 3;13759;128935;5
214;f30;f30;1;3;filler;unrelated;grammatical;1;above;grammatical >> ?;condition 1 >> condition 3;22582;151518;6
214;f45;f45;1;2;attention;unrelated;grammatical;1;below;* >> grammatical;condition 2 >> condition 1;10269;179470;8
214;f04;f04;1;2;control;related;SUBJ OBJfix;1;above;SUBJ OBJfix >> *OBJfix SUBJ;condition 1 >> condition 2;17270;196741;9
214;f43;f43;1;3;filler;unrelated;grammatical;1;above;grammatical >> ?;condition 1 >> condition 3;11949;233476;11
214;f09;f09;1;2;control;unrelated;SUBJ OBJ;1;above;SUBJ OBJ >> *OBJ SUBJ;condition 1 >> condition 2;12030;262221;13
214;f39;f39;1;2;attention;unrelated;grammatical;1;above;grammatical >> *;condition 1 >> condition 2;35205;297427;14
214;f05;f05;1;2;control;related;SUBJ OBJfix;1;below;*OBJfix SUBJ >> SUBJ OBJfix;condition 2 >> condition 1;12405;328634;16
214;f33;f33;1;3;filler;unrelated;?;3;below;grammatical >> ?;condition 1 >> condition 3;33452;362089;17
214;f01;f01;1;2;control;related;SUBJ OBJfix;1;below;*OBJfix SUBJ >> SUBJ OBJfix;condition 2 >> condition 1;12813;391984;19
214;f32;f32;1;2;attention;unrelated;grammatical;1;above;grammatical >> *;condition 1 >> condition 2;16686;408672;20
214;f17;f17;1;2;attention;pseudo_windef;grammatical;1;below;* >> grammatical;condition 2 >> condition 1;7734;437903;22
214;f02;f02;1;2;control;related;SUBJ OBJfix;1;above;SUBJ OBJfix >> *OBJfix SUBJ;condition 1 >> condition 2;10984;448888;23
214;f27;f27;1;3;filler;pseudo_manner/COM;grammatical;1;above;grammatical >> ?;condition 1 >> condition 3;36419;513141;25
214;f14;f14;1;2;control;unrelated;SUBJ OBJ;1;above;SUBJ OBJ >> *OBJ SUBJ;condition 1 >> condition 2;10694;523836;26
214;f42;f42;1;2;attention;unrelated (pseudo_manner);grammatical;1;above;grammatical >> *;condition 1 >> condition 2;24583;576051;28
214;f46;f46;1;3;filler;unrelated;grammatical;1;above;grammatical >> ?;condition 1 >> condition 3;14061;608266;30
214;f40;f40;1;2;attention;unrelated;grammatical;1;below;* >> grammatical;condition 2 >> condition 1;18869;643313;32
214;f12;f12;1;2;control;unrelated;SUBJ OBJ;1;above;SUBJ OBJ >> *OBJ SUBJ;condition 1 >> condition 2;10551;653866;33
214;f28;f28;1;2;filler;unrelated;grammatical;1;below;* >> grammatical;condition 2 >> condition 1;30740;708016;35
214;f38;f38;1;3;filler;unrelated;grammatical;1;below;? >> grammatical;condition 3 >> condition 1;11175;735280;37
214;f08;f08;1;2;control;related;SUBJ OBJfix;1;below;*OBJfix SUBJ >> SUBJ OBJfix;condition 2 >> condition 1;21830;779070;39
214;f29;f29;1;3;filler;unrelated;grammatical;1;below;? >> grammatical;condition 3 >> condition 1;16556;795629;40
214;f13;f13;1;2;control;unrelated;SUBJ OBJ;1;below;*OBJ SUBJ >> SUBJ OBJ;condition 2 >> condition 1;7036;840195;42
214;f31;f31;1;2;attention;unrelated;grammatical;1;above;grammatical >> *;condition 1 >> condition 2;23191;863389;43
214;f47;f47;1;2;filler;unrelated;grammatical;1;above;grammatical >> *;condition 1 >> condition 2;11963;897379;45
214;f03;f03;1;2;control;related;SUBJ OBJfix;1;below;*OBJfix SUBJ >> SUBJ OBJfix;condition 2 >> condition 1;16574;913954;46
214;f37;f37;1;2;filler;pseudo_CC/COM;grammatical;1;above;grammatical >> *;condition 1 >> condition 2;20893;951544;48
214;f41;f41;1;3;filler;unrelated (pseudo_manner);grammatical;1;below;? >> grammatical;condition 3 >> condition 1;18727;985042;50
214;f11;f11;1;2;control;unrelated;SUBJ OBJ;1;below;*OBJ SUBJ >> SUBJ OBJ;condition 2 >> condition 1;6308;991352;51
214;f06;f06;1;2;control;related;SUBJ OBJfix;1;above;SUBJ OBJfix >> *OBJfix SUBJ;condition 1 >> condition 2;19454;1024239;53
214;f35;f35;1;2;attention;pseudo_COM/manner;grammatical;1;above;grammatical >> *;condition 1 >> condition 2;50548;1074790;54
214;f07;f07;1;2;control;related;SUBJ OBJfix;1;above;SUBJ OBJfix >> *OBJfix SUBJ;condition 1 >> condition 2;30573;1105364;55
214;f15;f15;1;2;control;unrelated;SUBJ OBJ;1;below;*OBJ SUBJ >> SUBJ OBJ;condition 2 >> condition 1;6929;1126775;57
214;f21;f21;1;2;attention;pseudo_windef;grammatical;1;below;* >> grammatical;condition 2 >> condition 1;13404;1140180;58
214;f19;f19;1;2;attention;pseudo_windef;grammatical;1;above;grammatical >> *;condition 1 >> condition 2;9656;1162669;60
214;f48;f48;1;2;attention;unrelated;grammatical;1;above;grammatical >> *;condition 1 >> condition 2;23245;1196114;62
214;f10;f10;1;2;control;unrelated;SUBJ OBJ;1;above;SUBJ OBJ >> *OBJ SUBJ;condition 1 >> condition 2;15350;1232233;64
214;f22;f22;1;3;filler;pseudo_windef;grammatical;1;above;grammatical >> ?;condition 1 >> condition 3;14894;1247129;65
214;f16;f16;1;2;control;unrelated;SUBJ OBJ;1;below;*OBJ SUBJ >> SUBJ OBJ;condition 2 >> condition 1;8917;1256048;66
214;f20;f20;1;3;filler;pseudo_windef;grammatical;1;below;? >> grammatical;condition 3 >> condition 1;21710;1305399;68
214;f23;f23;1;3;filler;pseudo_windef;grammatical;1;below;? >> grammatical;condition 3 >> condition 1;24465;1347373;70
214;f24;f24;1;2;attention;pseudo_windef;grammatical;1;above;grammatical >> *;condition 1 >> condition 2;14430;1361806;71
219;f26;f26;1;2;calibration(gr/ugr);unrelated;grammatical;1;below;* >> grammatical;condition 2 >> condition 1;14795;14797;0
219;f44;f44;1;2;calibration(gr/ugr);unrelated;grammatical;1;below;* >> grammatical;condition 2 >> condition 1;10972;25773;1
219;f18;f18;1;2;calibration(gr/ugr);pseudo_windef;grammatical;1;below;* >> grammatical;condition 2 >> condition 1;4968;30745;2
219;f34;f34;1;3;calibration(gr/mittel);unrelated;grammatical;1;below;? >> grammatical;condition 3 >> condition 1;3132;33881;3
219;f25;f25;1;3;calibration(gr/mittel);unrelated;grammatical;1;below;? >> grammatical;condition 3 >> condition 1;3406;37290;4
219;f36;f36;1;3;calibration(gr/mittel);unrelated;grammatical;1;above;grammatical >> ?;condition 1 >> condition 3;6280;43573;5
219;f40;f40;1;2;attention;unrelated;grammatical;1;above;grammatical >> *;condition 1 >> condition 2;10525;54100;6
219;f07;f07;1;2;control;related;SUBJ OBJfix;1;above;SUBJ OBJfix >> *OBJfix SUBJ;condition 1 >> condition 2;5980;78840;8
219;f29;f29;1;3;filler;unrelated;grammatical;1;above;grammatical >> ?;condition 1 >> condition 3;11955;90797;9
219;f03;f03;1;2;control;related;SUBJ OBJfix;1;above;SUBJ OBJfix >> *OBJfix SUBJ;condition 1 >> condition 2;7114;97915;10
219;f14;f14;1;2;control;unrelated;SUBJ OBJ;1;above;SUBJ OBJ >> *OBJ SUBJ;condition 1 >> condition 2;8403;115044;12
219;f39;f39;1;2;attention;unrelated;grammatical;1;below;* >> grammatical;condition 2 >> condition 1;13198;128246;13
219;f12;f12;1;2;control;unrelated;SUBJ OBJ;1;below;*OBJ SUBJ >> SUBJ OBJ;condition 2 >> condition 1;12600;140848;14
219;f38;f38;1;3;filler;unrelated;grammatical;1;above;grammatical >> ?;condition 1 >> condition 3;8177;166310;16
219;f19;f19;1;2;attention;pseudo_windef;grammatical;1;below;* >> grammatical;condition 2 >> condition 1;6911;183266;18
219;f16;f16;1;2;control;unrelated;SUBJ OBJ;1;below;*OBJ SUBJ >> SUBJ OBJ;condition 2 >> condition 1;4581;197433;20
219;f17;f17;1;2;attention;pseudo_windef;grammatical;1;above;grammatical >> *;condition 1 >> condition 2;15931;213369;21
219;f22;f22;1;3;filler;pseudo_windef;grammatical;1;above;grammatical >> ?;condition 1 >> condition 3;15280;238476;23
219;f37;f37;1;2;filler;pseudo_CC/COM;grammatical;1;below;* >> grammatical;condition 2 >> condition 1;7081;252976;25
219;f04;f04;1;2;control;related;SUBJ OBJfix;1;below;*OBJfix SUBJ >> SUBJ OBJfix;condition 2 >> condition 1;4806;257787;26
219;f47;f47;1;2;filler;unrelated;grammatical;1;above;grammatical >> *;condition 1 >> condition 2;6680;268706;28
219;f11;f11;1;2;control;unrelated;SUBJ OBJ;1;above;SUBJ OBJ >> *OBJ SUBJ;condition 1 >> condition 2;6202;279706;30
219;f27;f27;1;3;filler;pseudo_manner/COM;grammatical;1;above;grammatical >> ?;condition 1 >> condition 3;9604;289313;31
219;f32;f32;1;2;attention;unrelated;grammatical;1;below;* >> grammatical;condition 2 >> condition 1;7489;305878;33
219;f02;f02;1;2;control;related;SUBJ OBJfix;1;below;*OBJfix SUBJ >> SUBJ OBJfix;condition 2 >> condition 1;4203;310085;34
219;f30;f30;1;3;filler;unrelated;grammatical;1;below;? >> grammatical;condition 3 >> condition 1;10074;326368;36
219;f33;f33;1;3;filler;unrelated;?;3;above;? >> grammatical;condition 3 >> condition 1;5834;341716;38
219;f08;f08;1;2;control;related;SUBJ OBJfix;1;above;SUBJ OBJfix >> *OBJfix SUBJ;condition 1 >> condition 2;6239;354524;40
219;f31;f31;1;2;attention;unrelated;grammatical;1;above;grammatical >> *;condition 1 >> condition 2;8874;363401;41
219;f35;f35;1;2;attention;pseudo_COM/manner;grammatical;1;below;* >> grammatical;condition 2 >> condition 1;24377;394306;43
219;f01;f01;1;2;control;related;SUBJ OBJfix;1;below;*OBJfix SUBJ >> SUBJ OBJfix;condition 2 >> condition 1;3349;397658;44
219;f21;f21;1;2;attention;pseudo_windef;grammatical;1;below;* >> grammatical;condition 2 >> condition 1;14532;420062;46
219;f06;f06;1;2;control;related;SUBJ OBJfix;1;above;SUBJ OBJfix >> *OBJfix SUBJ;condition 1 >> condition 2;3779;429243;48
219;f48;f48;1;2;attention;unrelated;grammatical;1;above;grammatical >> *;condition 1 >> condition 2;7575;436821;49
219;f09;f09;1;2;control;unrelated;SUBJ OBJ;1;below;*OBJ SUBJ >> SUBJ OBJ;condition 2 >> condition 1;8361;445185;50
219;f05;f05;1;2;control;related;SUBJ OBJfix;1;below;*OBJfix SUBJ >> SUBJ OBJfix;condition 2 >> condition 1;3933;458569;52
219;f28;f28;1;2;filler;unrelated;grammatical;1;below;* >> grammatical;condition 2 >> condition 1;4076;462650;53
219;f20;f20;1;3;filler;pseudo_windef;grammatical;1;above;grammatical >> ?;condition 1 >> condition 3;7381;474013;55
219;f15;f15;1;2;control;unrelated;SUBJ OBJ;1;below;*OBJ SUBJ >> SUBJ OBJ;condition 2 >> condition 1;4331;478351;56
219;f41;f41;1;3;filler;unrelated (pseudo_manner);grammatical;1;above;grammatical >> ?;condition 1 >> condition 3;7257;493979;58
219;f24;f24;1;2;attention;pseudo_windef;grammatical;1;above;grammatical >> *;condition 1 >> condition 2;6063;503799;60
219;f13;f13;1;2;control;unrelated;SUBJ OBJ;1;above;SUBJ OBJ >> *OBJ SUBJ;condition 1 >> condition 2;9488;513289;61
219;f45;f45;1;2;attention;unrelated;grammatical;1;below;* >> grammatical;condition 2 >> condition 1;9303;528329;63
219;f23;f23;1;3;filler;pseudo_windef;grammatical;1;above;grammatical >> ?;condition 1 >> condition 3;7639;542902;65
219;f46;f46;1;3;filler;unrelated;grammatical;1;above;grammatical >> ?;condition 1 >> condition 3;12223;563701;67
219;f10;f10;1;2;control;unrelated;SUBJ OBJ;1;above;SUBJ OBJ >> *OBJ SUBJ;condition 1 >> condition 2;5584;569289;68
219;f42;f42;1;2;attention;unrelated (pseudo_manner);grammatical;1;below;* >> grammatical;condition 2 >> condition 1;9040;582394;70
219;f43;f43;1;3;filler;unrelated;grammatical;1;above;grammatical >> ?;condition 1 >> condition 3;7706;590103;71
220;f18;f18;1;2;calibration(gr/ugr);pseudo_windef;grammatical;1;below;* >> grammatical;condition 2 >> condition 1;8122;8124;0
220;f34;f34;1;3;calibration(gr/mittel);unrelated;grammatical;1;above;grammatical >> ?;condition 1 >> condition 3;10699;18824;1
220;f36;f36;1;3;calibration(gr/mittel);unrelated;?;3;above;? >> grammatical;condition 3 >> condition 1;17785;36610;2
220;f25;f25;1;3;calibration(gr/mittel);unrelated;grammatical;1;below;? >> grammatical;condition 3 >> condition 1;5374;41985;3
220;f26;f26;1;2;calibration(gr/ugr);unrelated;grammatical;1;below;* >> grammatical;condition 2 >> condition 1;4139;46125;4
220;f44;f44;1;2;calibration(gr/ugr);unrelated;grammatical;1;above;grammatical >> *;condition 1 >> condition 2;7973;54099;5
220;f11;f11;1;2;control;unrelated;SUBJ OBJ;1;below;*OBJ SUBJ >> SUBJ OBJ;condition 2 >> condition 1;3602;57703;6
220;f41;f41;1;3;filler;unrelated (pseudo_manner);grammatical;1;above;grammatical >> ?;condition 1 >> condition 3;7496;65201;7
220;f07;f07;1;2;control;related;SUBJ OBJfix;1;below;*OBJfix SUBJ >> SUBJ OBJfix;condition 2 >> condition 1;5536;70737;8
220;f12;f12;1;2;control;unrelated;SUBJ OBJ;1;below;*OBJ SUBJ >> SUBJ OBJ;condition 2 >> condition 1;5265;87799;10
220;f46;f46;1;3;filler;unrelated;grammatical;1;below;? >> grammatical;condition 3 >> condition 1;5530;93330;11
220;f38;f38;1;3;filler;unrelated;grammatical;1;above;grammatical >> ?;condition 1 >> condition 3;4898;103826;13
220;f05;f05;1;2;control;related;SUBJ OBJfix;1;below;*OBJfix SUBJ >> SUBJ OBJfix;condition 2 >> condition 1;8635;126127;15
220;f47;f47;1;2;filler;unrelated;grammatical;1;above;grammatical >> *;condition 1 >> condition 2;5085;131213;16
220;f14;f14;1;2;control;unrelated;SUBJ OBJ;1;below;*OBJ SUBJ >> SUBJ OBJ;condition 2 >> condition 1;3546;134760;17
220;f39;f39;1;2;attention;unrelated;grammatical;1;above;grammatical >> *;condition 1 >> condition 2;16351;180747;19
220;f13;f13;1;2;control;unrelated;SUBJ OBJ;1;below;*OBJ SUBJ >> SUBJ OBJ;condition 2 >> condition 1;3546;184294;20
220;f42;f42;1;2;attention;unrelated (pseudo_manner);grammatical;1;above;grammatical >> *;condition 1 >> condition 2;5217;199604;22
220;f20;f20;1;3;filler;pseudo_windef;grammatical;1;above;grammatical >> ?;condition 1 >> condition 3;10077;223392;24
220;f19;f19;1;2;attention;pseudo_windef;grammatical;1;above;grammatical >> *;condition 1 >> condition 2;3929;236399;26
220;f16;f16;1;2;control;unrelated;SUBJ OBJ;1;above;SUBJ OBJ >> *OBJ SUBJ;condition 1 >> condition 2;6219;250571;28
220;f31;f31;1;2;attention;unrelated;grammatical;1;below;* >> grammatical;condition 2 >> condition 1;7190;257762;29
220;f06;f06;1;2;control;related;SUBJ OBJfix;1;above;SUBJ OBJfix >> *OBJfix SUBJ;condition 1 >> condition 2;5352;263115;30
220;f17;f17;1;2;attention;pseudo_windef;grammatical;1;above;grammatical >> *;condition 1 >> condition 2;9142;279905;32
220;f30;f30;1;3;filler;unrelated;grammatical;1;above;grammatical >> ?;condition 1 >> condition 3;8370;294931;34
220;f02;f02;1;2;control;related;SUBJ OBJfix;1;below;*OBJfix SUBJ >> SUBJ OBJfix;condition 2 >> condition 1;8664;303596;35
220;f22;f22;1;3;filler;pseudo_windef;grammatical;1;below;? >> grammatical;condition 3 >> condition 1;4994;327103;37
220;f10;f10;1;2;control;unrelated;SUBJ OBJ;1;below;*OBJ SUBJ >> SUBJ OBJ;condition 2 >> condition 1;3762;330866;38
220;f04;f04;1;2;control;related;SUBJ OBJfix;1;above;SUBJ OBJfix >> *OBJfix SUBJ;condition 1 >> condition 2;5011;344603;40
220;f32;f32;1;2;attention;unrelated;grammatical;1;below;* >> grammatical;condition 2 >> condition 1;15405;360009;41
220;f43;f43;1;3;filler;unrelated;grammatical;1;below;? >> grammatical;condition 3 >> condition 1;5548;371355;43
220;f40;f40;1;2;attention;unrelated;grammatical;1;below;* >> grammatical;condition 2 >> condition 1;5655;386650;45
220;f08;f08;1;2;control;related;SUBJ OBJfix;1;above;SUBJ OBJfix >> *OBJfix SUBJ;condition 1 >> condition 2;5221;391872;46
220;f23;f23;1;3;filler;pseudo_windef;grammatical;1;below;? >> grammatical;condition 3 >> condition 1;3645;399231;48
220;f03;f03;1;2;control;related;SUBJ OBJfix;1;below;*OBJfix SUBJ >> SUBJ OBJfix;condition 2 >> condition 1;4114;408495;50
220;f33;f33;1;3;filler;unrelated;?;3;below;grammatical >> ?;condition 1 >> condition 3;5891;414387;51
220;f37;f37;1;2;filler;pseudo_CC/COM;grammatical;1;above;grammatical >> *;condition 1 >> condition 2;7342;430013;53
220;f09;f09;1;2;control;unrelated;SUBJ OBJ;1;below;*OBJ SUBJ >> SUBJ OBJ;condition 2 >> condition 1;3309;441806;55
220;f24;f24;1;2;attention;pseudo_windef;grammatical;1;below;* >> grammatical;condition 2 >> condition 1;9174;450981;56
220;f01;f01;1;2;control;related;SUBJ OBJfix;1;below;*OBJfix SUBJ >> SUBJ OBJfix;condition 2 >> condition 1;5790;462840;58
220;f27;f27;1;3;filler;pseudo_manner/COM;grammatical;1;above;grammatical >> ?;condition 1 >> condition 3;9403;472244;59
220;f48;f48;1;2;attention;unrelated;grammatical;1;above;grammatical >> *;condition 1 >> condition 2;6794;489328;61
220;f45;f45;1;2;attention;unrelated;grammatical;1;below;* >> grammatical;condition 2 >> condition 1;5782;506968;63
220;f35;f35;1;2;attention;pseudo_COM/manner;*;2;below;grammatical >> *;condition 1 >> condition 2;4788;531228;65
220;f28;f28;1;2;filler;unrelated;grammatical;1;above;grammatical >> *;condition 1 >> condition 2;11514;547591;67
220;f15;f15;1;2;control;unrelated;SUBJ OBJ;1;below;*OBJ SUBJ >> SUBJ OBJ;condition 2 >> condition 1;7696;555288;68
220;f21;f21;1;2;attention;pseudo_windef;grammatical;1;above;grammatical >> *;condition 1 >> condition 2;6791;567323;70
220;f29;f29;1;3;filler;unrelated;grammatical;1;above;grammatical >> ?;condition 1 >> condition 3;10010;577334;71
222;f34;f34;1;3;calibration(gr/mittel);unrelated;grammatical;1;below;? >> grammatical;condition 3 >> condition 1;7529;7531;0
222;f18;f18;1;2;calibration(gr/ugr);pseudo_windef;grammatical;1;above;grammatical >> *;condition 1 >> condition 2;11996;19531;1
222;f36;f36;1;3;calibration(gr/mittel);unrelated;?;3;above;? >> grammatical;condition 3 >> condition 1;17572;37106;2
222;f26;f26;1;2;calibration(gr/ugr);unrelated;grammatical;1;below;* >> grammatical;condition 2 >> condition 1;5654;42763;3
222;f44;f44;1;2;calibration(gr/ugr);unrelated;grammatical;1;below;* >> grammatical;condition 2 >> condition 1;9780;52545;4
222;f25;f25;1;3;calibration(gr/mittel);unrelated;grammatical;1;above;grammatical >> ?;condition 1 >> condition 3;11037;63584;5
222;f03;f03;1;2;control;related;SUBJ OBJfix;1;below;*OBJfix SUBJ >> SUBJ OBJfix;condition 2 >> condition 1;21191;84777;6
222;f45;f45;1;2;attention;unrelated;grammatical;1;below;* >> grammatical;condition 2 >> condition 1;14473;99252;7
222;f22;f22;1;3;filler;pseudo_windef;grammatical;1;below;? >> grammatical;condition 3 >> condition 1;10723;125227;9
222;f12;f12;1;2;control;unrelated;SUBJ OBJ;1;above;SUBJ OBJ >> *OBJ SUBJ;condition 1 >> condition 2;8005;144534;11
222;f30;f30;1;3;filler;unrelated;grammatical;1;below;? >> grammatical;condition 3 >> condition 1;9055;153591;12
222;f37;f37;1;2;filler;pseudo_CC/COM;grammatical;1;below;* >> grammatical;condition 2 >> condition 1;11490;174156;14
222;f41;f41;1;3;filler;unrelated (pseudo_manner);grammatical;1;above;grammatical >> ?;condition 1 >> condition 3;11217;202449;16
222;f07;f07;1;2;control;related;SUBJ OBJfix;1;below;*OBJfix SUBJ >> SUBJ OBJfix;condition 2 >> condition 1;7389;209840;17
222;f10;f10;1;2;control;unrelated;SUBJ OBJ;1;above;SUBJ OBJ >> *OBJ SUBJ;condition 1 >> condition 2;6186;226844;19
222;f29;f29;1;3;filler;unrelated;grammatical;1;above;grammatical >> ?;condition 1 >> condition 3;10443;237289;20
222;f13;f13;1;2;control;unrelated;SUBJ OBJ;1;above;SUBJ OBJ >> *OBJ SUBJ;condition 1 >> condition 2;7742;245033;21
222;f04;f04;1;2;control;related;SUBJ OBJfix;1;above;SUBJ OBJfix >> *OBJfix SUBJ;condition 1 >> condition 2;7757;260876;23
222;f38;f38;1;3;filler;unrelated;grammatical;1;below;? >> grammatical;condition 3 >> condition 1;7617;268497;24
222;f20;f20;1;3;filler;pseudo_windef;grammatical;1;below;? >> grammatical;condition 3 >> condition 1;7841;283374;26
222;f27;f27;1;3;filler;pseudo_manner/COM;grammatical;1;below;? >> grammatical;condition 3 >> condition 1;10926;307230;28
222;f08;f08;1;2;control;related;SUBJ OBJfix;1;below;*OBJfix SUBJ >> SUBJ OBJfix;condition 2 >> condition 1;5664;328190;30
222;f31;f31;1;2;attention;unrelated;grammatical;1;below;* >> grammatical;condition 2 >> condition 1;15054;343246;31
222;f01;f01;1;2;control;related;SUBJ OBJfix;1;above;SUBJ OBJfix >> *OBJfix SUBJ;condition 1 >> condition 2;9867;353115;32
222;f39;f39;1;2;attention;unrelated;grammatical;1;above;grammatical >> *;condition 1 >> condition 2;9439;368622;34
222;f02;f02;1;2;control;related;SUBJ OBJfix;1;above;SUBJ OBJfix >> *OBJfix SUBJ;condition 1 >> condition 2;7243;383058;36
222;f48;f48;1;2;attention;unrelated;grammatical;1;below;* >> grammatical;condition 2 >> condition 1;7158;390219;37
222;f42;f42;1;2;attention;unrelated (pseudo_manner);grammatical;1;above;grammatical >> *;condition 1 >> condition 2;10149;420006;39
222;f05;f05;1;2;control;related;SUBJ OBJfix;1;below;*OBJfix SUBJ >> SUBJ OBJfix;condition 2 >> condition 1;4843;433195;41
222;f32;f32;1;2;attention;unrelated;grammatical;1;above;grammatical >> *;condition 1 >> condition 2;11108;444305;42
222;f23;f23;1;3;filler;pseudo_windef;grammatical;1;above;grammatical >> ?;condition 1 >> condition 3;10350;466370;44
222;f16;f16;1;2;control;unrelated;SUBJ OBJ;1;above;SUBJ OBJ >> *OBJ SUBJ;condition 1 >> condition 2;11532;477904;45
222;f19;f19;1;2;attention;pseudo_windef;grammatical;1;below;* >> grammatical;condition 2 >> condition 1;4862;493352;47
222;f33;f33;1;3;filler;unrelated;?;3;below;grammatical >> ?;condition 1 >> condition 3;8879;508357;49
222;f14;f14;1;2;control;unrelated;SUBJ OBJ;1;below;*OBJ SUBJ >> SUBJ OBJ;condition 2 >> condition 1;7896;527574;51
222;f47;f47;1;2;filler;unrelated;grammatical;1;below;* >> grammatical;condition 2 >> condition 1;7199;534774;52
222;f09;f09;1;2;control;unrelated;SUBJ OBJ;1;above;SUBJ OBJ >> *OBJ SUBJ;condition 1 >> condition 2;4874;539650;53
222;f15;f15;1;2;control;unrelated;SUBJ OBJ;1;below;*OBJ SUBJ >> SUBJ OBJ;condition 2 >> condition 1;4466;549234;55
222;f28;f28;1;2;filler;unrelated;grammatical;1;above;grammatical >> *;condition 1 >> condition 2;6737;555973;56
222;f21;f21;1;2;attention;pseudo_windef;grammatical;1;below;* >> grammatical;condition 2 >> condition 1;10084;577077;58
222;f24;f24;1;2;attention;pseudo_windef;grammatical;1;below;* >> grammatical;condition 2 >> condition 1;11718;605041;60
222;f43;f43;1;3;filler;unrelated;grammatical;1;below;? >> grammatical;condition 3 >> condition 1;5509;618896;62
222;f06;f06;1;2;control;related;SUBJ OBJfix;1;below;*OBJfix SUBJ >> SUBJ OBJfix;condition 2 >> condition 1;8299;640156;64
222;f40;f40;1;2;attention;unrelated;grammatical;1;above;grammatical >> *;condition 1 >> condition 2;13266;653425;65
222;f11;f11;1;2;control;unrelated;SUBJ OBJ;1;below;*OBJ SUBJ >> SUBJ OBJ;condition 2 >> condition 1;4459;667035;67
222;f17;f17;1;2;attention;pseudo_windef;grammatical;1;below;* >> grammatical;condition 2 >> condition 1;9695;676731;68
222;f46;f46;1;3;filler;unrelated;grammatical;1;above;grammatical >> ?;condition 1 >> condition 3;15926;704375;70
222;f35;f35;1;2;attention;pseudo_COM/manner;grammatical;1;above;grammatical >> *;condition 1 >> condition 2;15209;719587;71
223;f36;f36;1;3;calibration(gr/mittel);unrelated;?;3;above;? >> grammatical;condition 3 >> condition 1;10870;10872;0
223;f26;f26;1;2;calibration(gr/ugr);unrelated;grammatical;1;above;grammatical >> *;condition 1 >> condition 2;9862;20736;1
223;f25;f25;1;3;calibration(gr/mittel);unrelated;grammatical;1;below;? >> grammatical;condition 3 >> condition 1;6838;27576;2
223;f44;f44;1;2;calibration(gr/ugr);unrelated;grammatical;1;below;* >> grammatical;condition 2 >> condition 1;7007;34584;3
223;f34;f34;1;3;calibration(gr/mittel);unrelated;grammatical;1;below;? >> grammatical;condition 3 >> condition 1;7031;41616;4
223;f18;f18;1;2;calibration(gr/ugr);pseudo_windef;grammatical;1;above;grammatical >> *;condition 1 >> condition 2;9141;50760;5
223;f15;f15;1;2;control;unrelated;SUBJ OBJ;1;above;SUBJ OBJ >> *OBJ SUBJ;condition 1 >> condition 2;13671;64432;6
223;f17;f17;1;2;attention;pseudo_windef;grammatical;1;above;grammatical >> *;condition 1 >> condition 2;21094;85529;7
223;f01;f01;1;2;control;related;SUBJ OBJfix;1;above;SUBJ OBJfix >> *OBJfix SUBJ;condition 1 >> condition 2;11670;115745;9
223;f19;f19;1;2;attention;pseudo_windef;grammatical;1;below;* >> grammatical;condition 2 >> condition 1;5015;120761;10
223;f03;f03;1;2;control;related;SUBJ OBJfix;1;above;SUBJ OBJfix >> *OBJfix SUBJ;condition 1 >> condition 2;6767;127529;11
223;f48;f48;1;2;attention;unrelated;grammatical;1;below;* >> grammatical;condition 2 >> condition 1;8607;149873;13
223;f31;f31;1;2;attention;unrelated;grammatical;1;above;grammatical >> *;condition 1 >> condition 2;16030;178153;15
223;f02;f02;1;2;control;related;SUBJ OBJfix;1;below;*OBJfix SUBJ >> SUBJ OBJfix;condition 2 >> condition 1;8271;186425;16
223;f12;f12;1;2;control;unrelated;SUBJ OBJ;1;above;SUBJ OBJ >> *OBJ SUBJ;condition 1 >> condition 2;8078;206914;18
223;f35;f35;1;2;attention;pseudo_COM/manner;grammatical;1;below;* >> grammatical;condition 2 >> condition 1;34166;241082;19
223;f07;f07;1;2;control;related;SUBJ OBJfix;1;above;SUBJ OBJfix >> *OBJfix SUBJ;condition 1 >> condition 2;9647;250730;20
223;f33;f33;1;3;filler;unrelated;grammatical;1;below;? >> grammatical;condition 3 >> condition 1;8591;273218;22
223;f11;f11;1;2;control;unrelated;SUBJ OBJ;1;below;*OBJ SUBJ >> SUBJ OBJ;condition 2 >> condition 1;4999;278218;23
223;f42;f42;1;2;attention;unrelated (pseudo_manner);grammatical;1;above;grammatical >> *;condition 1 >> condition 2;17215;307090;25
223;f09;f09;1;2;control;unrelated;SUBJ OBJ;1;above;SUBJ OBJ >> *OBJ SUBJ;condition 1 >> condition 2;7502;329762;27
223;f23;f23;1;3;filler;pseudo_windef;grammatical;1;below;? >> grammatical;condition 3 >> condition 1;7798;337562;28
223;f45;f45;1;2;attention;unrelated;grammatical;1;above;grammatical >> *;condition 1 >> condition 2;16663;369571;30
223;f29;f29;1;3;filler;unrelated;grammatical;1;above;grammatical >> ?;condition 1 >> condition 3;15053;394307;32
223;f08;f08;1;2;control;related;SUBJ OBJfix;1;below;*OBJfix SUBJ >> SUBJ OBJfix;condition 2 >> condition 1;11030;405339;33
223;f24;f24;1;2;attention;pseudo_windef;grammatical;1;below;* >> grammatical;condition 2 >> condition 1;6967;419859;35
223;f37;f37;1;2;filler;pseudo_CC/COM;grammatical;1;above;grammatical >> *;condition 1 >> condition 2;21031;453187;37
223;f41;f41;1;3;filler;unrelated (pseudo_manner);?;3;below;grammatical >> ?;condition 1 >> condition 3;9399;471603;39
223;f05;f05;1;2;control;related;SUBJ OBJfix;1;below;*OBJfix SUBJ >> SUBJ OBJfix;condition 2 >> condition 1;7310;493212;41
223;f22;f22;1;3;filler;pseudo_windef;grammatical;1;below;? >> grammatical;condition 3 >> condition 1;7701;500916;42
223;f20;f20;1;3;filler;pseudo_windef;grammatical;1;below;? >> grammatical;condition 3 >> condition 1;10254;526035;44
223;f13;f13;1;2;control;unrelated;SUBJ OBJ;1;below;*OBJ SUBJ >> SUBJ OBJ;condition 2 >> condition 1;6950;532987;45
223;f40;f40;1;2;attention;unrelated;grammatical;1;below;* >> grammatical;condition 2 >> condition 1;7303;554540;47
223;f10;f10;1;2;control;unrelated;SUBJ OBJ;1;below;*OBJ SUBJ >> SUBJ OBJ;condition 2 >> condition 1;6151;560692;48
223;f21;f21;1;2;attention;pseudo_windef;grammatical;1;below;* >> grammatical;condition 2 >> condition 1;16271;584852;50
223;f30;f30;1;3;filler;unrelated;grammatical;1;below;? >> grammatical;condition 3 >> condition 1;8967;605292;52
223;f14;f14;1;2;control;unrelated;SUBJ OBJ;1;below;*OBJ SUBJ >> SUBJ OBJ;condition 2 >> condition 1;7326;612621;53
223;f06;f06;1;2;control;related;SUBJ OBJfix;1;below;*OBJfix SUBJ >> SUBJ OBJfix;condition 2 >> condition 1;5374;626004;55
223;f27;f27;1;3;filler;pseudo_manner/COM;grammatical;1;above;grammatical >> ?;condition 1 >> condition 3;9094;635100;56
223;f16;f16;1;2;control;unrelated;SUBJ OBJ;1;below;*OBJ SUBJ >> SUBJ OBJ;condition 2 >> condition 1;9199;651732;58
223;f47;f47;1;2;filler;unrelated;grammatical;1;above;grammatical >> *;condition 1 >> condition 2;10111;661845;59
223;f28;f28;1;2;filler;unrelated;grammatical;1;above;grammatical >> *;condition 1 >> condition 2;11390;682317;61
223;f43;f43;1;3;filler;unrelated;grammatical;1;above;grammatical >> ?;condition 1 >> condition 3;8990;702133;63
223;f38;f38;1;3;filler;unrelated;grammatical;1;above;grammatical >> ?;condition 1 >> condition 3;13191;723229;65
223;f39;f39;1;2;attention;unrelated;grammatical;1;above;grammatical >> *;condition 1 >> condition 2;20230;753693;67
223;f04;f04;1;2;control;related;SUBJ OBJfix;1;above;SUBJ OBJfix >> *OBJfix SUBJ;condition 1 >> condition 2;6183;759877;68
223;f46;f46;1;3;filler;unrelated;grammatical;1;below;? >> grammatical;condition 3 >> condition 1;7022;775309;70
223;f32;f32;1;2;attention;unrelated;grammatical;1;above;grammatical >> *;condition 1 >> condition 2;15263;790573;71
224;f18;f18;1;2;calibration(gr/ugr);pseudo_windef;grammatical;1;below;* >> grammatical;condition 2 >> condition 1;11317;11319;0
224;f25;f25;1;3;calibration(gr/mittel);unrelated;grammatical;1;below;? >> grammatical;condition 3 >> condition 1;8399;19720;1
224;f44;f44;1;2;calibration(gr/ugr);unrelated;grammatical;1;below;* >> grammatical;condition 2 >> condition 1;11512;31234;2
224;f34;f34;1;3;calibration(gr/mittel);unrelated;grammatical;1;above;grammatical >> ?;condition 1 >> condition 3;10265;41500;3
224;f26;f26;1;2;calibration(gr/ugr);unrelated;grammatical;1;above;grammatical >> *;condition 1 >> condition 2;7266;48767;4
224;f36;f36;1;3;calibration(gr/mittel);unrelated;grammatical;1;above;grammatical >> ?;condition 1 >> condition 3;18935;67703;5
224;f35;f35;1;2;attention;pseudo_COM/manner;grammatical;1;above;grammatical >> *;condition 1 >> condition 2;16589;84295;6
224;f09;f09;1;2;control;unrelated;SUBJ OBJ;1;above;SUBJ OBJ >> *OBJ SUBJ;condition 1 >> condition 2;10212;94508;7
224;f20;f20;1;3;filler;pseudo_windef;grammatical;1;above;grammatical >> ?;condition 1 >> condition 3;11999;126176;9
224;f10;f10;1;2;control;unrelated;SUBJ OBJ;1;above;SUBJ OBJ >> *OBJ SUBJ;condition 1 >> condition 2;12064;138242;10
224;f45;f45;1;2;attention;unrelated;grammatical;1;below;* >> grammatical;condition 2 >> condition 1;9320;162875;12
224;f15;f15;1;2;control;unrelated;SUBJ OBJ;1;below;*OBJ SUBJ >> SUBJ OBJ;condition 2 >> condition 1;5644;180842;14
224;f41;f41;1;3;filler;unrelated (pseudo_manner);grammatical;1;above;grammatical >> ?;condition 1 >> condition 3;22054;202898;15
224;f43;f43;1;3;filler;unrelated;grammatical;1;below;? >> grammatical;condition 3 >> condition 1;10096;227354;17
224;f40;f40;1;2;attention;unrelated;grammatical;1;below;* >> grammatical;condition 2 >> condition 1;10279;254288;19
224;f33;f33;1;3;filler;unrelated;?;3;below;grammatical >> ?;condition 1 >> condition 3;13593;280332;21
224;f47;f47;1;2;filler;unrelated;grammatical;1;below;* >> grammatical;condition 2 >> condition 1;9372;303003;23
224;f23;f23;1;3;filler;pseudo_windef;grammatical;1;below;? >> grammatical;condition 3 >> condition 1;6862;323066;25
224;f24;f24;1;2;attention;pseudo_windef;grammatical;1;below;* >> grammatical;condition 2 >> condition 1;28471;360229;27
224;f06;f06;1;2;control;related;SUBJ OBJfix;1;below;*OBJfix SUBJ >> SUBJ OBJfix;condition 2 >> condition 1;8977;369208;28
224;f31;f31;1;2;attention;unrelated;grammatical;1;below;* >> grammatical;condition 2 >> condition 1;14624;393567;30
224;f48;f48;1;2;attention;unrelated;grammatical;1;below;* >> grammatical;condition 2 >> condition 1;19899;422886;32
224;f46;f46;1;3;filler;unrelated;grammatical;1;above;grammatical >> ?;condition 1 >> condition 3;11156;447545;34
224;f05;f05;1;2;control;related;SUBJ OBJfix;1;above;SUBJ OBJfix >> *OBJfix SUBJ;condition 1 >> condition 2;17945;465491;35
224;f13;f13;1;2;control;unrelated;SUBJ OBJ;1;above;SUBJ OBJ >> *OBJ SUBJ;condition 1 >> condition 2;14059;489713;37
224;f38;f38;1;3;filler;unrelated;grammatical;1;above;grammatical >> ?;condition 1 >> condition 3;13748;503462;38
224;f42;f42;1;2;attention;unrelated (pseudo_manner);grammatical;1;above;grammatical >> *;condition 1 >> condition 2;15563;534143;40
224;f12;f12;1;2;control;unrelated;SUBJ OBJ;1;above;SUBJ OBJ >> *OBJ SUBJ;condition 1 >> condition 2;9102;563298;42
224;f17;f17;1;2;attention;pseudo_windef;grammatical;1;above;grammatical >> *;condition 1 >> condition 2;17048;580347;43
224;f01;f01;1;2;control;related;SUBJ OBJfix;1;above;SUBJ OBJfix >> *OBJfix SUBJ;condition 1 >> condition 2;10305;609196;45
224;f29;f29;1;3;filler;unrelated;grammatical;1;below;? >> grammatical;condition 3 >> condition 1;11807;621005;46
224;f07;f07;1;2;control;related;SUBJ OBJfix;1;above;SUBJ OBJfix >> *OBJfix SUBJ;condition 1 >> condition 2;10275;642481;48
224;f27;f27;1;3;filler;pseudo_manner/COM;grammatical;1;above;grammatical >> ?;condition 1 >> condition 3;13141;655623;49
224;f28;f28;1;2;filler;unrelated;grammatical;1;above;grammatical >> *;condition 1 >> condition 2;10683;674708;51
224;f14;f14;1;2;control;unrelated;SUBJ OBJ;1;below;*OBJ SUBJ >> SUBJ OBJ;condition 2 >> condition 1;6314;681024;52
224;f19;f19;1;2;attention;pseudo_windef;grammatical;1;above;grammatical >> *;condition 1 >> condition 2;9622;704620;54
224;f02;f02;1;2;control;related;SUBJ OBJfix;1;below;*OBJfix SUBJ >> SUBJ OBJfix;condition 2 >> condition 1;9255;713877;55
224;f03;f03;1;2;control;related;SUBJ OBJfix;1;above;SUBJ OBJfix >> *OBJfix SUBJ;condition 1 >> condition 2;7027;736266;57
224;f22;f22;1;3;filler;pseudo_windef;grammatical;1;above;grammatical >> ?;condition 1 >> condition 3;13300;749567;58
224;f04;f04;1;2;control;related;SUBJ OBJfix;1;above;SUBJ OBJfix >> *OBJfix SUBJ;condition 1 >> condition 2;7413;756981;59
224;f08;f08;1;2;control;related;SUBJ OBJfix;1;above;SUBJ OBJfix >> *OBJfix SUBJ;condition 1 >> condition 2;7192;772277;61
224;f30;f30;1;3;filler;unrelated;grammatical;1;below;? >> grammatical;condition 3 >> condition 1;11036;783316;62
224;f16;f16;1;2;control;unrelated;SUBJ OBJ;1;below;*OBJ SUBJ >> SUBJ OBJ;condition 2 >> condition 1;4293;787611;63
224;f32;f32;1;2;attention;unrelated;grammatical;1;below;* >> grammatical;condition 2 >> condition 1;13760;810104;65
224;f37;f37;1;2;filler;pseudo_CC/COM;grammatical;1;below;* >> grammatical;condition 2 >> condition 1;13489;832446;67
224;f39;f39;1;2;attention;unrelated;grammatical;1;below;* >> grammatical;condition 2 >> condition 1;16203;864770;69
224;f11;f11;1;2;control;unrelated;SUBJ OBJ;1;below;*OBJ SUBJ >> SUBJ OBJ;condition 2 >> condition 1;6925;871697;70
224;f21;f21;1;2;attention;pseudo_windef;grammatical;1;below;* >> grammatical;condition 2 >> condition 1;10393;882091;71
225;f34;f34;1;3;calibration(gr/mittel);unrelated;grammatical;1;below;? >> grammatical;condition 3 >> condition 1;7241;7244;0
225;f36;f36;1;3;calibration(gr/mittel);unrelated;grammatical;1;above;grammatical >> ?;condition 1 >> condition 3;7832;15079;1
225;f25;f25;1;3;calibration(gr/mittel);unrelated;grammatical;1;above;grammatical >> ?;condition 1 >> condition 3;8763;23843;2
225;f18;f18;1;2;calibration(gr/ugr);pseudo_windef;grammatical;1;above;grammatical >> *;condition 1 >> condition 2;10016;33861;3
225;f44;f44;1;2;calibration(gr/ugr);unrelated;grammatical;1;above;grammatical >> *;condition 1 >> condition 2;7590;41453;4
225;f26;f26;1;2;calibration(gr/ugr);unrelated;grammatical;1;below;* >> grammatical;condition 2 >> condition 1;7500;48954;5
225;f30;f30;1;3;filler;unrelated;grammatical;1;above;grammatical >> ?;condition 1 >> condition 3;13672;62627;6
225;f14;f14;1;2;control;unrelated;SUBJ OBJ;1;below;*OBJ SUBJ >> SUBJ OBJ;condition 2 >> condition 1;10481;86713;8
225;f23;f23;1;3;filler;pseudo_windef;grammatical;1;above;grammatical >> ?;condition 1 >> condition 3;7146;93861;9
225;f02;f02;1;2;control;related;SUBJ OBJfix;1;below;*OBJfix SUBJ >> SUBJ OBJfix;condition 2 >> condition 1;8482;102345;10
225;f12;f12;1;2;control;unrelated;SUBJ OBJ;1;below;*OBJ SUBJ >> SUBJ OBJ;condition 2 >> condition 1;5755;121161;12
225;f45;f45;1;2;attention;unrelated;grammatical;1;above;grammatical >> *;condition 1 >> condition 2;10546;131708;13
225;f24;f24;1;2;attention;pseudo_windef;grammatical;1;above;grammatical >> *;condition 1 >> condition 2;14550;153077;15
225;f03;f03;1;2;control;related;SUBJ OBJfix;1;below;*OBJfix SUBJ >> SUBJ OBJfix;condition 2 >> condition 1;7147;169806;17
225;f38;f38;1;3;filler;unrelated;grammatical;1;above;grammatical >> ?;condition 1 >> condition 3;8745;178553;18
225;f39;f39;1;2;attention;unrelated;grammatical;1;below;* >> grammatical;condition 2 >> condition 1;12231;201079;20
225;f21;f21;1;2;attention;pseudo_windef;grammatical;1;below;* >> grammatical;condition 2 >> condition 1;13886;227796;22
225;f06;f06;1;2;control;related;SUBJ OBJfix;1;above;SUBJ OBJfix >> *OBJfix SUBJ;condition 1 >> condition 2;7107;234906;23
225;f32;f32;1;2;attention;unrelated;grammatical;1;below;* >> grammatical;condition 2 >> condition 1;14651;263734;25
225;f08;f08;1;2;control;related;SUBJ OBJfix;1;above;SUBJ OBJfix >> *OBJfix SUBJ;condition 1 >> condition 2;5008;284535;27
225;f22;f22;1;3;filler;pseudo_windef;grammatical;1;below;? >> grammatical;condition 3 >> condition 1;4928;289464;28
225;f09;f09;1;2;control;unrelated;SUBJ OBJ;1;above;SUBJ OBJ >> *OBJ SUBJ;condition 1 >> condition 2;18757;324591;30
225;f19;f19;1;2;attention;pseudo_windef;grammatical;1;below;* >> grammatical;condition 2 >> condition 1;6722;331314;31
225;f04;f04;1;2;control;related;SUBJ OBJfix;1;below;*OBJfix SUBJ >> SUBJ OBJfix;condition 2 >> condition 1;5425;336740;32
225;f29;f29;1;3;filler;unrelated;grammatical;1;above;grammatical >> ?;condition 1 >> condition 3;7208;353636;34
225;f16;f16;1;2;control;unrelated;SUBJ OBJ;1;above;SUBJ OBJ >> *OBJ SUBJ;condition 1 >> condition 2;9299;384979;36
225;f42;f42;1;2;attention;unrelated (pseudo_manner);grammatical;1;below;* >> grammatical;condition 2 >> condition 1;8074;393054;37
