workerId,ITEM_ID,ITEM_FUNCTION,ITEM_SUBGROUP,TYPE,OBJform,P,comment,ANSWER,ANSWER_POSITION,OPTION_0_ITEM,OPTION_1_ITEM,OPTION_0_KEY_CONDITION,OPTION_1_KEY_CONDITION,date_time_begin,date_time_end,rt,trial_index
505,f34,calibration,unrelated,,,,PO_position,accept,below,"Ich habe gehört, dass Lea sich bei Max gemeldet hat. Warum genau, weiß ich aber nicht.","Ich habe gehört, dass Lea bei Max sich gemeldet hat. Warum genau, weiß ich aber nicht.",accept,?,18:16:17,18:16:26,8513,0
505,f25,calibration,unrelated,,,,ADV_position,accept,above,"Kim hat erzählt, dass sie sich gerade unglaublich zusammenreißen musste. Warum genau, weiß ich aber nicht.","Kim hat erzählt, dass sie sich unglaublich gerade zusammenreißen musste. Warum genau, weiß ich aber nicht.",accept,?,18:16:26,18:16:33,7694,1
505,f44,calibration,unrelated,,,,PO_position,accept,above,"Ben hat erzählt, dass sein Sohn einigen Nachbarn auf die Nerven gegangen ist. Ob ihn das stört, weiß ich aber nicht.","Ben hat erzählt, dass sein Sohn auf die Nerven einigen Nachbarn gegangen ist. Ob ihn das stört, weiß ich aber nicht.",accept,*,18:16:33,18:16:44,10377,2
505,f36,calibration,unrelated,,,,REFL_position,accept,below,"Ich habe gehört, dass Pia sich für ihre Verhaltensweise geschämt hat. Was genau vorgefallen ist, weiß ich aber nicht.","Ich habe gehört, dass sich Pia für ihre Verhaltensweise geschämt hat. Was genau vorgefallen ist, weiß ich aber nicht.",accept,?,18:16:44,18:16:56,12235,3
505,f26,calibration,unrelated,,,,REFL_position,accept,below,"Jan hat versprochen, dass er sich beeilt. Ich hoffe, er schafft es rechtzeitig.","Jan hat versprochen, dass sich er beeilt. Ich hoffe, er schafft es rechtzeitig.",accept,*,18:16:56,18:17:07,11164,4
505,f18,calibration,pseudo_windef,,,,SUBJ_position,accept,above,"Weißt du vielleicht, was Tim gerade eben aus dem Fenster geschmissen hat? Ich hoffe, es war kein Blumentopf.","Weißt du vielleicht, was gerade eben aus dem Fenster geschmissen Tim hat? Ich hoffe, es war kein Blumentopf.",accept,*,18:17:07,18:17:18,10566,5
505,f48,attention,unrelated,,,,V_position,accept,below,"Ich habe mitbekommen, dass der Clown die Zirkusbesucher gelangweilt hat. Ich hoffe, dass sie den Abend trotzdem genossen haben.","Ich habe mitbekommen, dass der Clown die Zirkusbesucher gelangweilt hat. Ich hoffe, dass sie den Abend genossen trotzdem haben.",accept,*,18:17:18,18:17:25,7140,6
505,f28,filler,unrelated,,,,REFL_position,accept,below,"Eva hat erzählt, dass sie sich in der Mittagspause ganz plötzlich übergeben musste. Warum, weiß sie aber auch nicht.","Eva hat erzählt, dass sie in der Mittagspause ganz plötzlich übergeben musste sich. Warum, weiß sie aber auch nicht.",accept,*,18:17:36,18:17:44,8143,8
505,f22,filler,pseudo_windef,,,,ADV_position,accept,above,"Weißt du vielleicht, wen Lea gerade angerufen hat? Ich hoffe, dass es keine teure Hotline war.","Weißt du vielleicht, wen Lea angerufen hat gerade? Ich hoffe, dass es keine teure Hotline war.",accept,?,18:17:51,18:18:03,12024,10
505,f41,filler,unrelated,,,,PO_position,accept,below,"Tim hat erzählt, dass er Uwe mit seiner unkonventionellen Art beeindruckt hat. Was genau passiert ist, weiß ich aber nicht.","Tim hat erzählt, dass er mit seiner unkonventionellen Art Uwe beeindruckt hat. Was genau passiert ist, weiß ich aber nicht.",accept,?,18:18:12,18:18:21,9498,12
505,f46,filler,unrelated,,,,SUBJ_position,accept,above,"Ich habe mitbekommen, dass der Beschluss die Bürger aufgewühlt hat. Ich hoffe, dass sich die Gemüter schnell wieder beruhigen.","Ich habe mitbekommen, dass die Bürger der Beschluss aufgewühlt hat. Ich hoffe, dass sich die Gemüter schnell wieder beruhigen.",accept,?,18:18:36,18:18:45,9062,14
505,f33,filler,unrelated,,,,REFL_position,accept,above,"Ich habe gehört, dass Uwe sich für einen Ausbildungsberuf entschieden hat. Für welchen genau, weiß ich aber nicht.","Ich habe gehört, dass sich Uwe für einen Ausbildungsberuf entschieden hat. Für welchen genau, weiß ich aber nicht.",accept,?,18:18:54,18:19:03,8923,16
505,f47,filler,unrelated,,,,V_position,accept,above,"Ich habe mitbekommen, dass der Problemschüler die Lehrer erstaunt hat. Ich hoffe, dass er doch noch versetzt wird.","Ich habe mitbekommen, dass der Problemschüler erstaunt die Lehrer hat. Ich hoffe, dass er doch noch versetzt wird.",accept,*,18:19:12,18:19:20,7874,18
505,f21,attention,pseudo_windef,,,,V_position,accept,above,"Kannst du mir sagen, wen Kai am Samstag in die Oper begleitet hat? Ich hoffe, dass es eine nette Dame war.","Kannst du mir sagen, wen Kai am Samstag in die Oper begleitet hat? Ich hoffe, dass eine nette Dame es war.",accept,*,18:19:29,18:19:43,13449,20
505,f40,attention,unrelated,,,,SUBJ_position,accept,above,"Ich habe gehört, dass Tim sich in einen Mann verliebt hat. Wie er das seiner Frau beibringen will, weiß ich aber nicht.","Ich habe gehört, dass Tim sich in einen Mann verliebt hat. Wie das er seiner Frau beibringen will, weiß ich aber nicht.",accept,*,18:19:49,18:20:08,19634,22
505,f31,attention,unrelated,,,,SUBJ_position,accept,below,"Isa hat versprochen, dass sie sich während der Diät täglich wiegt. Ich hoffe, dass sie ihr Wunschgewicht erreicht.","Isa hat versprochen, dass sie sich während der Diät täglich wiegt. Ich hoffe, dass ihr Wunschgewicht sie erreicht.",accept,*,18:20:20,18:20:29,9284,24
505,f24,attention,pseudo_windef,,,,V_position,accept,below,"Kannst du mir sagen, was Max zum Tatzeitpunkt gemacht hat? Ich hoffe, er hat ein gutes Alibi.","Kannst du mir sagen, was Max zum Tatzeitpunkt gemacht hat? Ich hoffe, er ein gutes Alibi hat.",accept,*,18:20:40,18:20:59,18708,26
505,f06,control,related,,,,order_SUBJ_OBJfix,accept,below,"Ich habe gehört, dass der Trödler was an den Mann gebracht hat. Was es war, weiß ich aber nicht.","Ich habe gehört, dass was der Trödler an den Mann gebracht hat. Was es war, weiß ich aber nicht.",accept,*,18:20:59,18:21:18,19744,27
505,f45,attention,unrelated,,,,SUBJ_position,accept,above,"Kai hat erzählt, dass der neue Mitarbeiter ihn anwidert. Wie lange er das noch aushält, weiß ich aber nicht.","Kai hat erzählt, dass der neue Mitarbeiter ihn anwidert. Wie lange das noch aushält er, weiß ich aber nicht.",accept,*,18:21:28,18:21:38,10177,29
505,f38,filler,unrelated,,,,PO_position,accept,above,"Ich habe mitbekommen, dass Kai sich bei der Stadt beworben hat. Ob er gute Chancen hat, weiß ich aber nicht.","Ich habe mitbekommen, dass Kai bei der Stadt sich beworben hat. Ob er gute Chancen hat, weiß ich aber nicht.",accept,?,18:21:53,18:22:08,14530,31
505,f23,filler,pseudo_windef,,,,ADV_position,accept,above,"Weißt du vielleicht, wen Tim heute morgen verhaftet hat? Ich hoffe, es war kein Unschuldiger.","Weißt du vielleicht, wen Tim verhaftet hat heute morgen? Ich hoffe, es war kein Unschuldiger.",accept,?,18:22:17,18:22:28,10664,33
505,f15,control,unrelated,,,,order_SUBJ_OBJ,accept,above,"Pia hat erzählt, dass sie Zugverspätungen hasst. Ob sie oft betroffen ist, weiß ich aber nicht.","Pia hat erzählt, dass Zugverspätungen sie hasst. Ob sie oft betroffen ist, weiß ich aber nicht.",accept,*,18:22:28,18:22:36,7925,34
505,f20,filler,pseudo_windef,,,,PO_position,accept,below,"Kannst du mir sagen, wen Kim mit dem Fall beauftragt hat? Ich hoffe, es ist jemand mit Erfahrung.","Kannst du mir sagen, wen Kim beauftragt hat mit dem Fall? Ich hoffe, es ist jemand mit Erfahrung.",accept,?,18:22:47,18:22:51,4172,36
505,f01,control,related,,,,order_SUBJ_OBJfix,accept,above,"Ich habe gehört, dass der Geschäftsmann was in Anspruch genommen hat. Was es war, weiß ich aber nicht.","Ich habe gehört, dass was der Geschäftsmann in Anspruch genommen hat. Was es war, weiß ich aber nicht.",accept,*,18:23:01,18:23:09,8152,38
505,f43,filler,unrelated,,,,ADV_position,accept,below,"Tim hat erzählt, dass ihn eine Meldung zutiefst schockiert hat. Welche genau, weiß ich aber nicht.","Tim hat erzählt, dass ihn zutiefst eine Meldung schockiert hat. Welche genau, weiß ich aber nicht.",accept,?,18:23:09,18:23:14,5663,39
505,f14,control,unrelated,,,,order_SUBJ_OBJ,accept,above,"Max hat erzählt, dass er Schwarzweißfilme liebt. Was er daran findet, weiß ich aber nicht.","Max hat erzählt, dass Schwarzweißfilme er liebt. Was er daran findet, weiß ich aber nicht.",accept,*,18:23:14,18:23:22,7185,40
505,f10,control,unrelated,,,,order_SUBJ_OBJ,accept,above,"Uwe hat erzählt, dass er Schlagerlieder verabscheut. Seit wann das so ist, weiß ich aber nicht.","Uwe hat erzählt, dass Schlagerlieder er verabscheut. Seit wann das so ist, weiß ich aber nicht.",accept,*,18:23:27,18:23:33,6022,42
505,f35,attention,pseudo_COM,,,,NEG_position,accept,above,"Ben hat erzählt, dass er sich auf heftige Weise mit Pia angelegt hat. Warum genau, weiß ich aber nicht.","Ben hat erzählt, dass er sich auf heftige Weise mit Pia angelegt hat. Warum genau, weiß ich nicht aber.",accept,*,18:23:33,18:23:48,14865,43
505,f19,attention,pseudo_windef,,,,V_position,accept,below,"Weißt du vielleicht, was Isa bestellt hat? Ich hoffe, es war nichts Teures.","Weißt du vielleicht, was Isa bestellt hat? Ich hoffe, es nichts Teures war.",accept,*,18:24:00,18:24:06,5214,45
505,f07,control,related,,,,order_SUBJ_OBJfix,accept,above,"Isa hat erzählt, dass der Ermittler was auf den Kopf gestellt hat. Was es war, weiß ich aber nicht.","Isa hat erzählt, dass was der Ermittler auf den Kopf gestellt hat. Was es war, weiß ich aber nicht.",accept,*,18:24:19,18:24:27,7618,47
505,f39,attention,unrelated,,,,V_position,accept,above,"Lea hat versprochen, dass sie sich bis morgen über die Finanzierungsmöglichkeiten informiert. Ich hoffe, dass wir einen Kredit bekommen.","Lea hat versprochen, dass sie sich bis morgen über die Finanzierungsmöglichkeiten informiert. Ich hoffe, dass wir bekommen einen Kredit.",accept,*,18:24:27,18:24:40,12687,48
505,f08,control,related,,,,order_SUBJ_OBJfix,accept,above,"Ich habe gehört, dass der Vorsitzende was zum Abschluss gebracht hat. Was es war, weiß ich aber nicht.","Ich habe gehört, dass was der Vorsitzende zum Abschluss gebracht hat. Was es war, weiß ich aber nicht.",accept,*,18:24:40,18:24:47,7266,49
505,f13,control,unrelated,,,,order_SUBJ_OBJ,accept,below,"Isa hat erzählt, dass sie die Vorbehalte missbilligt. Was genau vorgefallen ist, weiß ich aber nicht.","Isa hat erzählt, dass die Vorbehalte sie missbilligt. Was genau vorgefallen ist, weiß ich aber nicht.",accept,*,18:24:58,18:25:04,5757,51
505,f17,attention,pseudo_windef,,,,NEG_position,accept,above,"Kannst du mir sagen, wen Uwe gefeuert hat? Ich hoffe, es war nicht Ben.","Kannst du mir sagen, wen Uwe gefeuert hat? Ich hoffe, es nicht war Ben.",accept,*,18:25:04,18:25:10,6025,52
505,f03,control,related,,,,order_SUBJ_OBJfix,accept,below,"Max hat erzählt, dass der Richter was zur Kenntnis genommen hat. Was es war, weiß ich aber nicht.","Max hat erzählt, dass was der Richter zur Kenntnis genommen hat. Was es war, weiß ich aber nicht.",accept,*,18:25:10,18:25:20,9897,53
505,f16,control,unrelated,,,,order_SUBJ_OBJ,accept,below,"Uwe hat erzählt, dass er die Vorkommnisse verurteilt. Was genau vorgefallen ist, weiß ich aber nicht.","Uwe hat erzählt, dass die Vorkommnisse er verurteilt. Was genau vorgefallen ist, weiß ich aber nicht.",accept,*,18:25:28,18:25:38,9960,55
505,f32,attention,unrelated,,,,SUBJ_position,accept,above,"Max hat versprochen, dass er sich von nun an in der Schule benimmt. Ich hoffe, dass er seine Unruhe in den Griff bekommt.","Max hat versprochen, dass er sich von nun an in der Schule benimmt. Ich hoffe, dass seine Unruhe in den Griff er bekommt.",accept,*,18:25:38,18:25:50,12502,56
505,f02,control,related,,,,order_SUBJ_OBJfix,accept,below,"Pia hat erzählt, dass der Abteilungsleiter was in Aussicht gestellt hat. Was es war, weiß ich aber nicht.","Pia hat erzählt, dass was der Abteilungsleiter in Aussicht gestellt hat. Was es war, weiß ich aber nicht.",accept,*,18:25:50,18:26:01,11183,57
505,f37,filler,pseudo_COM,,,,REFL_position,accept,above,"Ich habe mitbekommen, dass Tim sich bei angelehnter Tür mit einem Kommilitonen ausgetauscht hat. Worüber genau, weiß ich aber nicht.","Ich habe mitbekommen, dass Tim bei angelehnter Tür mit einem Kommilitonen ausgetauscht sich hat. Worüber genau, weiß ich aber nicht.",accept,*,18:26:12,18:26:28,16656,59
505,f12,control,unrelated,,,,order_SUBJ_OBJ,accept,above,"Kim hat erzählt, dass sie ihren Chef verehrt. Ob das auf Gegenseitigkeit beruht, weiß ich aber nicht.","Kim hat erzählt, dass ihren Chef sie verehrt. Ob das auf Gegenseitigkeit beruht, weiß ich aber nicht.",accept,*,18:26:28,18:26:38,9366,60
505,f09,control,unrelated,,,,order_SUBJ_OBJ,accept,below,"Lea hat erzählt, dass sie die Speisen genossen hat. Ob das stimmt, weiß ich aber nicht.","Lea hat erzählt, dass die Speisen sie genossen hat. Ob das stimmt, weiß ich aber nicht.",accept,*,18:27:01,18:27:07,5509,62
505,f42,attention,unrleated,,,,SUBJ_position,accept,below,"Uwe hat erzählt, dass ihn das Theaterstück auf angenehme Weise entzückt hat. Ich hoffe, dass er nun öfter mitkommt.","Uwe hat erzählt, dass ihn das Theaterstück auf angenehme Weise entzückt hat. Ich hoffe, dass nun er öfter mitkommt.",accept,*,18:27:07,18:27:17,9703,63
505,f29,filler,unrelated,,,,ADV_position,accept,below,"Ich habe mitbekommen, dass sich der Sprecher bei der Probe häufig geräuspert hat. Warum genau, weiß ich aber nicht.","Ich habe mitbekommen, dass sich bei der Probe der Sprecher häufig geräuspert hat. Warum genau, weiß ich aber nicht.",accept,?,18:27:29,18:27:38,9111,65
505,f05,control,related,,,,order_SUBJ_OBJfix,accept,above,"Ich habe gehört, dass der Politiker was unter Verschluss gehalten hat. Was es war, weiß ich aber nicht.","Ich habe gehört, dass was der Politiker unter Verschluss gehalten hat. Was es war, weiß ich aber nicht.",accept,*,18:27:38,18:27:47,8548,66
505,f11,control,unrelated,,,,order_SUBJ_OBJ,accept,above,"Ben hat erzählt, dass er seine Nachbarn beneidet. Warum genau, weiß ich aber nicht.","Ben hat erzählt, dass seine Nachbarn er beneidet. Warum genau, weiß ich aber nicht.",accept,*,18:27:55,18:28:13,18382,68
505,f27,filler,pseudo_COM,,,,ADV_position,accept,below,"Ich habe mitbekommen, dass Tim sich zusammen mit Ben auf verdächtige Art weggeschlichen hat. Warum er das getan hat, weiß ich aber nicht.","Ich habe mitbekommen, dass Tim zusammen mit Ben sich auf verdächtige Art weggeschlichen hat. Warum er das getan hat, weiß ich aber nicht.",accept,?,18:28:13,18:28:19,5472,69
505,f04,control,related,,,,order_SUBJ_OBJfix,accept,above,"Lea hat erzählt, dass der Student was zum Verkauf angeboten hat. Was es war, weiß ich aber nicht.","Lea hat erzählt, dass was der Student zum Verkauf angeboten hat. Was es war, weiß ich aber nicht.",accept,*,18:28:19,18:28:26,7125,70
505,f30,filler,unrelated,,,,ADV_position,accept,above,"Eva hat versprochen, dass sie sich vor dem Sport immer bei geöffnetem Fenster dehnt. Ich hoffe, sie hält sich auch daran.","Eva hat versprochen, dass sie sich immer bei geöffnetem Fenster dehnt vor dem Sport. Ich hoffe, sie hält sich auch daran.",accept,?,18:28:26,18:28:37,11269,71
502,f25,calibration,unrelated,,,,ADV_position,accept,above,"Kim hat erzählt, dass sie sich gerade unglaublich zusammenreißen musste. Warum genau, weiß ich aber nicht.","Kim hat erzählt, dass sie sich unglaublich gerade zusammenreißen musste. Warum genau, weiß ich aber nicht.",accept,?,17:55:22,17:55:33,11517,0
502,f34,calibration,unrelated,,,,PO_position,accept,above,"Ich habe gehört, dass Lea sich bei Max gemeldet hat. Warum genau, weiß ich aber nicht.","Ich habe gehört, dass Lea bei Max sich gemeldet hat. Warum genau, weiß ich aber nicht.",accept,?,17:55:33,17:55:42,8454,1
502,f18,calibration,pseudo_windef,,,,SUBJ_position,accept,above,"Weißt du vielleicht, was Tim gerade eben aus dem Fenster geschmissen hat? Ich hoffe, es war kein Blumentopf.","Weißt du vielleicht, was gerade eben aus dem Fenster geschmissen Tim hat? Ich hoffe, es war kein Blumentopf.",accept,*,17:55:42,17:55:52,10167,2
502,f36,calibration,unrelated,,,,REFL_position,accept,above,"Ich habe gehört, dass Pia sich für ihre Verhaltensweise geschämt hat. Was genau vorgefallen ist, weiß ich aber nicht.","Ich habe gehört, dass sich Pia für ihre Verhaltensweise geschämt hat. Was genau vorgefallen ist, weiß ich aber nicht.",accept,?,17:55:52,17:56:05,12531,3
502,f44,calibration,unrelated,,,,PO_position,accept,below,"Ben hat erzählt, dass sein Sohn einigen Nachbarn auf die Nerven gegangen ist. Ob ihn das stört, weiß ich aber nicht.","Ben hat erzählt, dass sein Sohn auf die Nerven einigen Nachbarn gegangen ist. Ob ihn das stört, weiß ich aber nicht.",accept,*,17:56:05,17:56:11,6860,4
502,f26,calibration,unrelated,,,,REFL_position,*,above,"Jan hat versprochen, dass er sich beeilt. Ich hoffe, er schafft es rechtzeitig.","Jan hat versprochen, dass sich er beeilt. Ich hoffe, er schafft es rechtzeitig.",accept,*,17:56:11,17:56:32,20705,5
502,f20,filler,pseudo_windef,,,,PO_position,accept,below,"Kannst du mir sagen, wen Kim mit dem Fall beauftragt hat? Ich hoffe, es ist jemand mit Erfahrung.","Kannst du mir sagen, wen Kim beauftragt hat mit dem Fall? Ich hoffe, es ist jemand mit Erfahrung.",accept,?,17:56:32,17:56:37,5107,6
502,f21,attention,pseudo_windef,,,,V_position,accept,below,"Kannst du mir sagen, wen Kai am Samstag in die Oper begleitet hat? Ich hoffe, dass es eine nette Dame war.","Kannst du mir sagen, wen Kai am Samstag in die Oper begleitet hat? Ich hoffe, dass eine nette Dame es war.",accept,*,17:56:49,17:57:07,18436,8
502,f33,filler,unrelated,,,,REFL_position,accept,below,"Ich habe gehört, dass Uwe sich für einen Ausbildungsberuf entschieden hat. Für welchen genau, weiß ich aber nicht.","Ich habe gehört, dass sich Uwe für einen Ausbildungsberuf entschieden hat. Für welchen genau, weiß ich aber nicht.",accept,?,17:57:17,17:57:22,5442,10
502,f42,attention,unrleated,,,,SUBJ_position,accept,below,"Uwe hat erzählt, dass ihn das Theaterstück auf angenehme Weise entzückt hat. Ich hoffe, dass er nun öfter mitkommt.","Uwe hat erzählt, dass ihn das Theaterstück auf angenehme Weise entzückt hat. Ich hoffe, dass nun er öfter mitkommt.",accept,*,17:57:29,17:57:39,10087,12
502,f46,filler,unrelated,,,,SUBJ_position,accept,above,"Ich habe mitbekommen, dass der Beschluss die Bürger aufgewühlt hat. Ich hoffe, dass sich die Gemüter schnell wieder beruhigen.","Ich habe mitbekommen, dass die Bürger der Beschluss aufgewühlt hat. Ich hoffe, dass sich die Gemüter schnell wieder beruhigen.",accept,?,17:57:51,17:57:57,6551,14
502,f43,filler,unrelated,,,,ADV_position,accept,above,"Tim hat erzählt, dass ihn eine Meldung zutiefst schockiert hat. Welche genau, weiß ich aber nicht.","Tim hat erzählt, dass ihn zutiefst eine Meldung schockiert hat. Welche genau, weiß ich aber nicht.",accept,?,17:58:04,17:58:11,7107,16
502,f24,attention,pseudo_windef,,,,V_position,accept,below,"Kannst du mir sagen, was Max zum Tatzeitpunkt gemacht hat? Ich hoffe, er hat ein gutes Alibi.","Kannst du mir sagen, was Max zum Tatzeitpunkt gemacht hat? Ich hoffe, er ein gutes Alibi hat.",accept,*,17:58:20,17:58:26,6360,18
502,f47,filler,unrelated,,,,V_position,accept,above,"Ich habe mitbekommen, dass der Problemschüler die Lehrer erstaunt hat. Ich hoffe, dass er doch noch versetzt wird.","Ich habe mitbekommen, dass der Problemschüler erstaunt die Lehrer hat. Ich hoffe, dass er doch noch versetzt wird.",accept,*,17:58:42,17:58:49,6102,20
502,f22,filler,pseudo_windef,,,,ADV_position,accept,below,"Weißt du vielleicht, wen Lea gerade angerufen hat? Ich hoffe, dass es keine teure Hotline war.","Weißt du vielleicht, wen Lea angerufen hat gerade? Ich hoffe, dass es keine teure Hotline war.",accept,?,17:58:55,17:59:00,4543,22
502,f07,control,related,,,,order_SUBJ_OBJfix,accept,below,"Isa hat erzählt, dass der Ermittler was auf den Kopf gestellt hat. Was es war, weiß ich aber nicht.","Isa hat erzählt, dass was der Ermittler auf den Kopf gestellt hat. Was es war, weiß ich aber nicht.",accept,*,17:59:09,17:59:15,6157,24
502,f28,filler,unrelated,,,,REFL_position,accept,below,"Eva hat erzählt, dass sie sich in der Mittagspause ganz plötzlich übergeben musste. Warum, weiß sie aber auch nicht.","Eva hat erzählt, dass sie in der Mittagspause ganz plötzlich übergeben musste sich. Warum, weiß sie aber auch nicht.",accept,*,17:59:15,17:59:20,5218,25
502,f15,control,unrelated,,,,order_SUBJ_OBJ,accept,below,"Pia hat erzählt, dass sie Zugverspätungen hasst. Ob sie oft betroffen ist, weiß ich aber nicht.","Pia hat erzählt, dass Zugverspätungen sie hasst. Ob sie oft betroffen ist, weiß ich aber nicht.",accept,*,17:59:27,17:59:31,4081,27
502,f41,filler,unrelated,,,,PO_position,accept,below,"Tim hat erzählt, dass er Uwe mit seiner unkonventionellen Art beeindruckt hat. Was genau passiert ist, weiß ich aber nicht.","Tim hat erzählt, dass er mit seiner unkonventionellen Art Uwe beeindruckt hat. Was genau passiert ist, weiß ich aber nicht.",accept,?,17:59:31,17:59:40,9007,28
502,f14,control,unrelated,,,,order_SUBJ_OBJ,accept,below,"Max hat erzählt, dass er Schwarzweißfilme liebt. Was er daran findet, weiß ich aber nicht.","Max hat erzählt, dass Schwarzweißfilme er liebt. Was er daran findet, weiß ich aber nicht.",accept,*,17:59:40,17:59:45,4967,29
502,f40,attention,unrelated,,,,SUBJ_position,accept,below,"Ich habe gehört, dass Tim sich in einen Mann verliebt hat. Wie er das seiner Frau beibringen will, weiß ich aber nicht.","Ich habe gehört, dass Tim sich in einen Mann verliebt hat. Wie das er seiner Frau beibringen will, weiß ich aber nicht.",accept,*,17:59:53,18:00:00,7026,31
502,f01,control,related,,,,order_SUBJ_OBJfix,accept,above,"Ich habe gehört, dass der Geschäftsmann was in Anspruch genommen hat. Was es war, weiß ich aber nicht.","Ich habe gehört, dass was der Geschäftsmann in Anspruch genommen hat. Was es war, weiß ich aber nicht.",accept,*,18:00:00,18:00:06,5385,32
502,f09,control,unrelated,,,,order_SUBJ_OBJ,accept,below,"Lea hat erzählt, dass sie die Speisen genossen hat. Ob das stimmt, weiß ich aber nicht.","Lea hat erzählt, dass die Speisen sie genossen hat. Ob das stimmt, weiß ich aber nicht.",accept,*,18:00:14,18:00:20,5785,34
502,f38,filler,unrelated,,,,PO_position,accept,above,"Ich habe mitbekommen, dass Kai sich bei der Stadt beworben hat. Ob er gute Chancen hat, weiß ich aber nicht.","Ich habe mitbekommen, dass Kai bei der Stadt sich beworben hat. Ob er gute Chancen hat, weiß ich aber nicht.",accept,?,18:00:20,18:00:26,6281,35
502,f03,control,related,,,,order_SUBJ_OBJfix,accept,below,"Max hat erzählt, dass der Richter was zur Kenntnis genommen hat. Was es war, weiß ich aber nicht.","Max hat erzählt, dass was der Richter zur Kenntnis genommen hat. Was es war, weiß ich aber nicht.",accept,*,18:00:26,18:00:32,6153,36
502,f19,attention,pseudo_windef,,,,V_position,accept,below,"Weißt du vielleicht, was Isa bestellt hat? Ich hoffe, es war nichts Teures.","Weißt du vielleicht, was Isa bestellt hat? Ich hoffe, es nichts Teures war.",accept,*,18:00:42,18:00:49,7210,38
502,f12,control,unrelated,,,,order_SUBJ_OBJ,accept,below,"Kim hat erzählt, dass sie ihren Chef verehrt. Ob das auf Gegenseitigkeit beruht, weiß ich aber nicht.","Kim hat erzählt, dass ihren Chef sie verehrt. Ob das auf Gegenseitigkeit beruht, weiß ich aber nicht.",accept,*,18:00:49,18:00:55,6431,39
502,f39,attention,unrelated,,,,V_position,accept,below,"Lea hat versprochen, dass sie sich bis morgen über die Finanzierungsmöglichkeiten informiert. Ich hoffe, dass wir einen Kredit bekommen.","Lea hat versprochen, dass sie sich bis morgen über die Finanzierungsmöglichkeiten informiert. Ich hoffe, dass wir bekommen einen Kredit.",accept,*,18:01:02,18:01:13,10499,41
502,f10,control,unrelated,,,,order_SUBJ_OBJ,accept,above,"Uwe hat erzählt, dass er Schlagerlieder verabscheut. Seit wann das so ist, weiß ich aber nicht.","Uwe hat erzählt, dass Schlagerlieder er verabscheut. Seit wann das so ist, weiß ich aber nicht.",accept,*,18:01:20,18:01:25,4945,43
502,f30,filler,unrelated,,,,ADV_position,accept,above,"Eva hat versprochen, dass sie sich vor dem Sport immer bei geöffnetem Fenster dehnt. Ich hoffe, sie hält sich auch daran.","Eva hat versprochen, dass sie sich immer bei geöffnetem Fenster dehnt vor dem Sport. Ich hoffe, sie hält sich auch daran.",accept,?,18:01:25,18:01:32,7539,44
502,f23,filler,pseudo_windef,,,,ADV_position,accept,above,"Weißt du vielleicht, wen Tim heute morgen verhaftet hat? Ich hoffe, es war kein Unschuldiger.","Weißt du vielleicht, wen Tim verhaftet hat heute morgen? Ich hoffe, es war kein Unschuldiger.",accept,?,18:01:42,18:01:50,7645,46
502,f13,control,unrelated,,,,order_SUBJ_OBJ,accept,below,"Isa hat erzählt, dass sie die Vorbehalte missbilligt. Was genau vorgefallen ist, weiß ich aber nicht.","Isa hat erzählt, dass die Vorbehalte sie missbilligt. Was genau vorgefallen ist, weiß ich aber nicht.",accept,*,18:01:50,18:01:55,5048,47
502,f32,attention,unrelated,,,,SUBJ_position,accept,below,"Max hat versprochen, dass er sich von nun an in der Schule benimmt. Ich hoffe, dass er seine Unruhe in den Griff bekommt.","Max hat versprochen, dass er sich von nun an in der Schule benimmt. Ich hoffe, dass seine Unruhe in den Griff er bekommt.",accept,*,18:02:05,18:02:14,9181,49
502,f48,attention,unrelated,,,,V_position,accept,above,"Ich habe mitbekommen, dass der Clown die Zirkusbesucher gelangweilt hat. Ich hoffe, dass sie den Abend trotzdem genossen haben.","Ich habe mitbekommen, dass der Clown die Zirkusbesucher gelangweilt hat. Ich hoffe, dass sie den Abend genossen trotzdem haben.",accept,*,18:02:20,18:02:27,6980,51
502,f16,control,unrelated,,,,order_SUBJ_OBJ,accept,above,"Uwe hat erzählt, dass er die Vorkommnisse verurteilt. Was genau vorgefallen ist, weiß ich aber nicht.","Uwe hat erzählt, dass die Vorkommnisse er verurteilt. Was genau vorgefallen ist, weiß ich aber nicht.",accept,*,18:02:27,18:02:42,15148,52
502,f02,control,related,,,,order_SUBJ_OBJfix,accept,above,"Pia hat erzählt, dass der Abteilungsleiter was in Aussicht gestellt hat. Was es war, weiß ich aber nicht.","Pia hat erzählt, dass was der Abteilungsleiter in Aussicht gestellt hat. Was es war, weiß ich aber nicht.",accept,*,18:02:48,18:02:53,5414,54
502,f27,filler,pseudo_COM,,,,ADV_position,accept,below,"Ich habe mitbekommen, dass Tim sich zusammen mit Ben auf verdächtige Art weggeschlichen hat. Warum er das getan hat, weiß ich aber nicht.","Ich habe mitbekommen, dass Tim zusammen mit Ben sich auf verdächtige Art weggeschlichen hat. Warum er das getan hat, weiß ich aber nicht.",accept,?,18:02:53,18:02:58,5440,55
502,f08,control,related,,,,order_SUBJ_OBJfix,accept,above,"Ich habe gehört, dass der Vorsitzende was zum Abschluss gebracht hat. Was es war, weiß ich aber nicht.","Ich habe gehört, dass was der Vorsitzende zum Abschluss gebracht hat. Was es war, weiß ich aber nicht.",accept,*,18:02:58,18:03:04,5624,56
502,f35,attention,pseudo_COM,,,,NEG_position,accept,below,"Ben hat erzählt, dass er sich auf heftige Weise mit Pia angelegt hat. Warum genau, weiß ich aber nicht.","Ben hat erzählt, dass er sich auf heftige Weise mit Pia angelegt hat. Warum genau, weiß ich nicht aber.",accept,*,18:03:14,18:03:23,8305,58
502,f29,filler,unrelated,,,,ADV_position,accept,below,"Ich habe mitbekommen, dass sich der Sprecher bei der Probe häufig geräuspert hat. Warum genau, weiß ich aber nicht.","Ich habe mitbekommen, dass sich bei der Probe der Sprecher häufig geräuspert hat. Warum genau, weiß ich aber nicht.",accept,?,18:03:30,18:03:41,10018,60
502,f11,control,unrelated,,,,order_SUBJ_OBJ,accept,above,"Ben hat erzählt, dass er seine Nachbarn beneidet. Warum genau, weiß ich aber nicht.","Ben hat erzählt, dass seine Nachbarn er beneidet. Warum genau, weiß ich aber nicht.",accept,*,18:03:41,18:03:46,5824,61
502,f06,control,related,,,,order_SUBJ_OBJfix,accept,above,"Ich habe gehört, dass der Trödler was an den Mann gebracht hat. Was es war, weiß ich aber nicht.","Ich habe gehört, dass was der Trödler an den Mann gebracht hat. Was es war, weiß ich aber nicht.",accept,*,18:03:54,18:03:59,4899,63
502,f17,attention,pseudo_windef,,,,NEG_position,accept,below,"Kannst du mir sagen, wen Uwe gefeuert hat? Ich hoffe, es war nicht Ben.","Kannst du mir sagen, wen Uwe gefeuert hat? Ich hoffe, es nicht war Ben.",accept,*,18:03:59,18:04:06,6560,64
502,f37,filler,pseudo_COM,,,,REFL_position,accept,below,"Ich habe mitbekommen, dass Tim sich bei angelehnter Tür mit einem Kommilitonen ausgetauscht hat. Worüber genau, weiß ich aber nicht.","Ich habe mitbekommen, dass Tim bei angelehnter Tür mit einem Kommilitonen ausgetauscht sich hat. Worüber genau, weiß ich aber nicht.",accept,*,18:04:19,18:04:25,5881,66
502,f05,control,related,,,,order_SUBJ_OBJfix,accept,above,"Ich habe gehört, dass der Politiker was unter Verschluss gehalten hat. Was es war, weiß ich aber nicht.","Ich habe gehört, dass was der Politiker unter Verschluss gehalten hat. Was es war, weiß ich aber nicht.",accept,*,18:04:25,18:04:30,5490,67
502,f31,attention,unrelated,,,,SUBJ_position,accept,above,"Isa hat versprochen, dass sie sich während der Diät täglich wiegt. Ich hoffe, dass sie ihr Wunschgewicht erreicht.","Isa hat versprochen, dass sie sich während der Diät täglich wiegt. Ich hoffe, dass ihr Wunschgewicht sie erreicht.",accept,*,18:04:43,18:04:50,6882,69
502,f04,control,related,,,,order_SUBJ_OBJfix,accept,below,"Lea hat erzählt, dass der Student was zum Verkauf angeboten hat. Was es war, weiß ich aber nicht.","Lea hat erzählt, dass was der Student zum Verkauf angeboten hat. Was es war, weiß ich aber nicht.",accept,*,18:04:50,18:04:54,4013,70
502,f45,attention,unrelated,,,,SUBJ_position,accept,above,"Kai hat erzählt, dass der neue Mitarbeiter ihn anwidert. Wie lange er das noch aushält, weiß ich aber nicht.","Kai hat erzählt, dass der neue Mitarbeiter ihn anwidert. Wie lange das noch aushält er, weiß ich aber nicht.",accept,*,18:04:54,18:05:01,7116,71
499,f18,calibration,pseudo_windef,,,,SUBJ_position,accept,below,"Weißt du vielleicht, was Tim gerade eben aus dem Fenster geschmissen hat? Ich hoffe, es war kein Blumentopf.","Weißt du vielleicht, was gerade eben aus dem Fenster geschmissen Tim hat? Ich hoffe, es war kein Blumentopf.",accept,*,17:54:44,17:54:57,12364,0
499,f26,calibration,unrelated,,,,REFL_position,accept,below,"Jan hat versprochen, dass er sich beeilt. Ich hoffe, er schafft es rechtzeitig.","Jan hat versprochen, dass sich er beeilt. Ich hoffe, er schafft es rechtzeitig.",accept,*,17:54:57,17:55:10,13411,1
499,f34,calibration,unrelated,,,,PO_position,accept,below,"Ich habe gehört, dass Lea sich bei Max gemeldet hat. Warum genau, weiß ich aber nicht.","Ich habe gehört, dass Lea bei Max sich gemeldet hat. Warum genau, weiß ich aber nicht.",accept,?,17:55:10,17:55:17,6770,2
499,f36,calibration,unrelated,,,,REFL_position,accept,below,"Ich habe gehört, dass Pia sich für ihre Verhaltensweise geschämt hat. Was genau vorgefallen ist, weiß ich aber nicht.","Ich habe gehört, dass sich Pia für ihre Verhaltensweise geschämt hat. Was genau vorgefallen ist, weiß ich aber nicht.",accept,?,17:55:17,17:55:35,18124,3
499,f25,calibration,unrelated,,,,ADV_position,accept,above,"Kim hat erzählt, dass sie sich gerade unglaublich zusammenreißen musste. Warum genau, weiß ich aber nicht.","Kim hat erzählt, dass sie sich unglaublich gerade zusammenreißen musste. Warum genau, weiß ich aber nicht.",accept,?,17:55:35,17:55:49,14016,4
499,f44,calibration,unrelated,,,,PO_position,accept,below,"Ben hat erzählt, dass sein Sohn einigen Nachbarn auf die Nerven gegangen ist. Ob ihn das stört, weiß ich aber nicht.","Ben hat erzählt, dass sein Sohn auf die Nerven einigen Nachbarn gegangen ist. Ob ihn das stört, weiß ich aber nicht.",accept,*,17:55:49,17:56:02,12785,5
499,f47,filler,unrelated,,,,V_position,accept,above,"Ich habe mitbekommen, dass der Problemschüler die Lehrer erstaunt hat. Ich hoffe, dass er doch noch versetzt wird.","Ich habe mitbekommen, dass der Problemschüler erstaunt die Lehrer hat. Ich hoffe, dass er doch noch versetzt wird.",accept,*,17:56:02,17:56:16,14475,6
499,f41,filler,unrelated,,,,PO_position,accept,below,"Tim hat erzählt, dass er Uwe mit seiner unkonventionellen Art beeindruckt hat. Was genau passiert ist, weiß ich aber nicht.","Tim hat erzählt, dass er mit seiner unkonventionellen Art Uwe beeindruckt hat. Was genau passiert ist, weiß ich aber nicht.",accept,?,17:56:35,17:56:53,17787,8
499,f38,filler,unrelated,,,,PO_position,accept,above,"Ich habe mitbekommen, dass Kai sich bei der Stadt beworben hat. Ob er gute Chancen hat, weiß ich aber nicht.","Ich habe mitbekommen, dass Kai bei der Stadt sich beworben hat. Ob er gute Chancen hat, weiß ich aber nicht.",accept,?,17:57:21,17:57:32,11090,10
499,f40,attention,unrelated,,,,SUBJ_position,accept,below,"Ich habe gehört, dass Tim sich in einen Mann verliebt hat. Wie er das seiner Frau beibringen will, weiß ich aber nicht.","Ich habe gehört, dass Tim sich in einen Mann verliebt hat. Wie das er seiner Frau beibringen will, weiß ich aber nicht.",accept,*,17:57:47,17:58:06,18760,12
499,f32,attention,unrelated,,,,SUBJ_position,accept,above,"Max hat versprochen, dass er sich von nun an in der Schule benimmt. Ich hoffe, dass er seine Unruhe in den Griff bekommt.","Max hat versprochen, dass er sich von nun an in der Schule benimmt. Ich hoffe, dass seine Unruhe in den Griff er bekommt.",accept,*,17:58:20,17:58:46,26075,14
499,f29,filler,unrelated,,,,ADV_position,accept,below,"Ich habe mitbekommen, dass sich der Sprecher bei der Probe häufig geräuspert hat. Warum genau, weiß ich aber nicht.","Ich habe mitbekommen, dass sich bei der Probe der Sprecher häufig geräuspert hat. Warum genau, weiß ich aber nicht.",accept,?,17:59:03,17:59:20,16638,16
499,f42,attention,unrleated,,,,SUBJ_position,accept,above,"Uwe hat erzählt, dass ihn das Theaterstück auf angenehme Weise entzückt hat. Ich hoffe, dass er nun öfter mitkommt.","Uwe hat erzählt, dass ihn das Theaterstück auf angenehme Weise entzückt hat. Ich hoffe, dass nun er öfter mitkommt.",accept,*,17:59:35,17:59:56,20901,18
499,f33,filler,unrelated,,,,REFL_position,accept,above,"Ich habe gehört, dass Uwe sich für einen Ausbildungsberuf entschieden hat. Für welchen genau, weiß ich aber nicht.","Ich habe gehört, dass sich Uwe für einen Ausbildungsberuf entschieden hat. Für welchen genau, weiß ich aber nicht.",accept,?,18:00:18,18:00:27,9878,20
499,f43,filler,unrelated,,,,ADV_position,accept,below,"Tim hat erzählt, dass ihn eine Meldung zutiefst schockiert hat. Welche genau, weiß ich aber nicht.","Tim hat erzählt, dass ihn zutiefst eine Meldung schockiert hat. Welche genau, weiß ich aber nicht.",accept,?,18:00:48,18:00:56,7250,22
499,f31,attention,unrelated,,,,SUBJ_position,accept,below,"Isa hat versprochen, dass sie sich während der Diät täglich wiegt. Ich hoffe, dass sie ihr Wunschgewicht erreicht.","Isa hat versprochen, dass sie sich während der Diät täglich wiegt. Ich hoffe, dass ihr Wunschgewicht sie erreicht.",accept,*,18:01:12,18:01:22,9171,24
499,f09,control,unrelated,,,,order_SUBJ_OBJ,accept,below,"Lea hat erzählt, dass sie die Speisen genossen hat. Ob das stimmt, weiß ich aber nicht.","Lea hat erzählt, dass die Speisen sie genossen hat. Ob das stimmt, weiß ich aber nicht.",accept,*,18:01:22,18:01:30,8253,25
499,f39,attention,unrelated,,,,V_position,accept,above,"Lea hat versprochen, dass sie sich bis morgen über die Finanzierungsmöglichkeiten informiert. Ich hoffe, dass wir einen Kredit bekommen.","Lea hat versprochen, dass sie sich bis morgen über die Finanzierungsmöglichkeiten informiert. Ich hoffe, dass wir bekommen einen Kredit.",accept,*,18:01:54,18:02:11,16883,27
499,f02,control,related,,,,order_SUBJ_OBJfix,accept,above,"Pia hat erzählt, dass der Abteilungsleiter was in Aussicht gestellt hat. Was es war, weiß ich aber nicht.","Pia hat erzählt, dass was der Abteilungsleiter in Aussicht gestellt hat. Was es war, weiß ich aber nicht.",accept,*,18:02:11,18:02:22,11250,28
499,f05,control,related,,,,order_SUBJ_OBJfix,accept,below,"Ich habe gehört, dass der Politiker was unter Verschluss gehalten hat. Was es war, weiß ich aber nicht.","Ich habe gehört, dass was der Politiker unter Verschluss gehalten hat. Was es war, weiß ich aber nicht.",accept,*,18:02:32,18:02:41,8379,30
499,f24,attention,pseudo_windef,,,,V_position,accept,above,"Kannst du mir sagen, was Max zum Tatzeitpunkt gemacht hat? Ich hoffe, er hat ein gutes Alibi.","Kannst du mir sagen, was Max zum Tatzeitpunkt gemacht hat? Ich hoffe, er ein gutes Alibi hat.",accept,*,18:02:41,18:02:51,10477,31
499,f01,control,related,,,,order_SUBJ_OBJfix,accept,above,"Ich habe gehört, dass der Geschäftsmann was in Anspruch genommen hat. Was es war, weiß ich aber nicht.","Ich habe gehört, dass was der Geschäftsmann in Anspruch genommen hat. Was es war, weiß ich aber nicht.",accept,*,18:02:51,18:03:03,11389,32
499,f45,attention,unrelated,,,,SUBJ_position,accept,above,"Kai hat erzählt, dass der neue Mitarbeiter ihn anwidert. Wie lange er das noch aushält, weiß ich aber nicht.","Kai hat erzählt, dass der neue Mitarbeiter ihn anwidert. Wie lange das noch aushält er, weiß ich aber nicht.",accept,*,18:03:28,18:03:51,22565,34
499,f14,control,unrelated,,,,order_SUBJ_OBJ,accept,above,"Max hat erzählt, dass er Schwarzweißfilme liebt. Was er daran findet, weiß ich aber nicht.","Max hat erzählt, dass Schwarzweißfilme er liebt. Was er daran findet, weiß ich aber nicht.",accept,*,18:03:51,18:03:59,8055,35
499,f37,filler,pseudo_COM,,,,REFL_position,accept,above,"Ich habe mitbekommen, dass Tim sich bei angelehnter Tür mit einem Kommilitonen ausgetauscht hat. Worüber genau, weiß ich aber nicht.","Ich habe mitbekommen, dass Tim bei angelehnter Tür mit einem Kommilitonen ausgetauscht sich hat. Worüber genau, weiß ich aber nicht.",accept,*,18:04:12,18:04:32,19910,37
499,f17,attention,pseudo_windef,,,,NEG_position,accept,above,"Kannst du mir sagen, wen Uwe gefeuert hat? Ich hoffe, es war nicht Ben.","Kannst du mir sagen, wen Uwe gefeuert hat? Ich hoffe, es nicht war Ben.",accept,*,18:04:45,18:04:54,9134,39
499,f15,control,unrelated,,,,order_SUBJ_OBJ,accept,above,"Pia hat erzählt, dass sie Zugverspätungen hasst. Ob sie oft betroffen ist, weiß ich aber nicht.","Pia hat erzählt, dass Zugverspätungen sie hasst. Ob sie oft betroffen ist, weiß ich aber nicht.",accept,*,18:04:54,18:05:03,9306,40
499,f35,attention,pseudo_COM,,,,NEG_position,accept,below,"Ben hat erzählt, dass er sich auf heftige Weise mit Pia angelegt hat. Warum genau, weiß ich aber nicht.","Ben hat erzählt, dass er sich auf heftige Weise mit Pia angelegt hat. Warum genau, weiß ich nicht aber.",accept,*,18:05:15,18:05:36,20703,42
499,f08,control,related,,,,order_SUBJ_OBJfix,accept,below,"Ich habe gehört, dass der Vorsitzende was zum Abschluss gebracht hat. Was es war, weiß ich aber nicht.","Ich habe gehört, dass was der Vorsitzende zum Abschluss gebracht hat. Was es war, weiß ich aber nicht.",accept,*,18:05:36,18:05:43,6783,43
499,f21,attention,pseudo_windef,,,,V_position,accept,below,"Kannst du mir sagen, wen Kai am Samstag in die Oper begleitet hat? Ich hoffe, dass es eine nette Dame war.","Kannst du mir sagen, wen Kai am Samstag in die Oper begleitet hat? Ich hoffe, dass eine nette Dame es war.",accept,*,18:05:53,18:06:05,12564,45
499,f04,control,related,,,,order_SUBJ_OBJfix,accept,below,"Lea hat erzählt, dass der Student was zum Verkauf angeboten hat. Was es war, weiß ich aber nicht.","Lea hat erzählt, dass was der Student zum Verkauf angeboten hat. Was es war, weiß ich aber nicht.",accept,*,18:06:16,18:06:22,5940,47
499,f28,filler,unrelated,,,,REFL_position,accept,above,"Eva hat erzählt, dass sie sich in der Mittagspause ganz plötzlich übergeben musste. Warum, weiß sie aber auch nicht.","Eva hat erzählt, dass sie in der Mittagspause ganz plötzlich übergeben musste sich. Warum, weiß sie aber auch nicht.",accept,*,18:06:22,18:06:32,10086,48
499,f13,control,unrelated,,,,order_SUBJ_OBJ,accept,above,"Isa hat erzählt, dass sie die Vorbehalte missbilligt. Was genau vorgefallen ist, weiß ich aber nicht.","Isa hat erzählt, dass die Vorbehalte sie missbilligt. Was genau vorgefallen ist, weiß ich aber nicht.",accept,*,18:06:32,18:06:42,9352,49
499,f48,attention,unrelated,,,,V_position,accept,above,"Ich habe mitbekommen, dass der Clown die Zirkusbesucher gelangweilt hat. Ich hoffe, dass sie den Abend trotzdem genossen haben.","Ich habe mitbekommen, dass der Clown die Zirkusbesucher gelangweilt hat. Ich hoffe, dass sie den Abend genossen trotzdem haben.",accept,*,18:07:05,18:07:32,26397,51
499,f20,filler,pseudo_windef,,,,PO_position,accept,below,"Kannst du mir sagen, wen Kim mit dem Fall beauftragt hat? Ich hoffe, es ist jemand mit Erfahrung.","Kannst du mir sagen, wen Kim beauftragt hat mit dem Fall? Ich hoffe, es ist jemand mit Erfahrung.",accept,?,18:07:47,18:07:53,5461,53
499,f03,control,related,,,,order_SUBJ_OBJfix,accept,below,"Max hat erzählt, dass der Richter was zur Kenntnis genommen hat. Was es war, weiß ich aber nicht.","Max hat erzählt, dass was der Richter zur Kenntnis genommen hat. Was es war, weiß ich aber nicht.",accept,*,18:07:53,18:07:59,6457,54
499,f27,filler,pseudo_COM,,,,ADV_position,accept,below,"Ich habe mitbekommen, dass Tim sich zusammen mit Ben auf verdächtige Art weggeschlichen hat. Warum er das getan hat, weiß ich aber nicht.","Ich habe mitbekommen, dass Tim zusammen mit Ben sich auf verdächtige Art weggeschlichen hat. Warum er das getan hat, weiß ich aber nicht.",accept,?,18:08:10,18:08:21,10792,56
499,f12,control,unrelated,,,,order_SUBJ_OBJ,accept,below,"Kim hat erzählt, dass sie ihren Chef verehrt. Ob das auf Gegenseitigkeit beruht, weiß ich aber nicht.","Kim hat erzählt, dass ihren Chef sie verehrt. Ob das auf Gegenseitigkeit beruht, weiß ich aber nicht.",accept,*,18:08:41,18:08:55,13740,58
499,f30,filler,unrelated,,,,ADV_position,accept,above,"Eva hat versprochen, dass sie sich vor dem Sport immer bei geöffnetem Fenster dehnt. Ich hoffe, sie hält sich auch daran.","Eva hat versprochen, dass sie sich immer bei geöffnetem Fenster dehnt vor dem Sport. Ich hoffe, sie hält sich auch daran.",accept,?,18:08:55,18:09:10,14568,59
499,f10,control,unrelated,,,,order_SUBJ_OBJ,accept,below,"Uwe hat erzählt, dass er Schlagerlieder verabscheut. Seit wann das so ist, weiß ich aber nicht.","Uwe hat erzählt, dass Schlagerlieder er verabscheut. Seit wann das so ist, weiß ich aber nicht.",accept,*,18:09:10,18:09:15,5542,60
499,f11,control,unrelated,,,,order_SUBJ_OBJ,accept,above,"Ben hat erzählt, dass er seine Nachbarn beneidet. Warum genau, weiß ich aber nicht.","Ben hat erzählt, dass seine Nachbarn er beneidet. Warum genau, weiß ich aber nicht.",accept,*,18:09:26,18:09:33,7094,62
499,f19,attention,pseudo_windef,,,,V_position,accept,below,"Weißt du vielleicht, was Isa bestellt hat? Ich hoffe, es war nichts Teures.","Weißt du vielleicht, was Isa bestellt hat? Ich hoffe, es nichts Teures war.",accept,*,18:09:33,18:09:39,5347,63
499,f07,control,related,,,,order_SUBJ_OBJfix,accept,below,"Isa hat erzählt, dass der Ermittler was auf den Kopf gestellt hat. Was es war, weiß ich aber nicht.","Isa hat erzählt, dass was der Ermittler auf den Kopf gestellt hat. Was es war, weiß ich aber nicht.",accept,*,18:09:39,18:09:43,4668,64
499,f46,filler,unrelated,,,,SUBJ_position,accept,below,"Ich habe mitbekommen, dass der Beschluss die Bürger aufgewühlt hat. Ich hoffe, dass sich die Gemüter schnell wieder beruhigen.","Ich habe mitbekommen, dass die Bürger der Beschluss aufgewühlt hat. Ich hoffe, dass sich die Gemüter schnell wieder beruhigen.",accept,?,18:09:51,18:09:59,8535,66
499,f16,control,unrelated,,,,order_SUBJ_OBJ,accept,below,"Uwe hat erzählt, dass er die Vorkommnisse verurteilt. Was genau vorgefallen ist, weiß ich aber nicht.","Uwe hat erzählt, dass die Vorkommnisse er verurteilt. Was genau vorgefallen ist, weiß ich aber nicht.",accept,*,18:09:59,18:10:04,4707,67
499,f06,control,related,,,,order_SUBJ_OBJfix,accept,below,"Ich habe gehört, dass der Trödler was an den Mann gebracht hat. Was es war, weiß ich aber nicht.","Ich habe gehört, dass was der Trödler an den Mann gebracht hat. Was es war, weiß ich aber nicht.",accept,*,18:10:14,18:10:19,4619,69
499,f23,filler,pseudo_windef,,,,ADV_position,accept,below,"Weißt du vielleicht, wen Tim heute morgen verhaftet hat? Ich hoffe, es war kein Unschuldiger.","Weißt du vielleicht, wen Tim verhaftet hat heute morgen? Ich hoffe, es war kein Unschuldiger.",accept,?,18:10:19,18:10:23,3744,70
499,f22,filler,pseudo_windef,,,,ADV_position,accept,below,"Weißt du vielleicht, wen Lea gerade angerufen hat? Ich hoffe, dass es keine teure Hotline war.","Weißt du vielleicht, wen Lea angerufen hat gerade? Ich hoffe, dass es keine teure Hotline war.",accept,?,18:10:23,18:10:27,4679,71
497,f25,calibration,unrelated,,,,ADV_position,accept,above,"Kim hat erzählt, dass sie sich gerade unglaublich zusammenreißen musste. Warum genau, weiß ich aber nicht.","Kim hat erzählt, dass sie sich unglaublich gerade zusammenreißen musste. Warum genau, weiß ich aber nicht.",accept,?,17:53:39,17:53:47,8189,0
497,f18,calibration,pseudo_windef,,,,SUBJ_position,accept,above,"Weißt du vielleicht, was Tim gerade eben aus dem Fenster geschmissen hat? Ich hoffe, es war kein Blumentopf.","Weißt du vielleicht, was gerade eben aus dem Fenster geschmissen Tim hat? Ich hoffe, es war kein Blumentopf.",accept,*,17:53:47,17:53:55,7934,1
497,f36,calibration,unrelated,,,,REFL_position,accept,below,"Ich habe gehört, dass Pia sich für ihre Verhaltensweise geschämt hat. Was genau vorgefallen ist, weiß ich aber nicht.","Ich habe gehört, dass sich Pia für ihre Verhaltensweise geschämt hat. Was genau vorgefallen ist, weiß ich aber nicht.",accept,?,17:53:55,17:54:07,11553,2
497,f34,calibration,unrelated,,,,PO_position,accept,above,"Ich habe gehört, dass Lea sich bei Max gemeldet hat. Warum genau, weiß ich aber nicht.","Ich habe gehört, dass Lea bei Max sich gemeldet hat. Warum genau, weiß ich aber nicht.",accept,?,17:54:07,17:54:14,7159,3
497,f44,calibration,unrelated,,,,PO_position,accept,above,"Ben hat erzählt, dass sein Sohn einigen Nachbarn auf die Nerven gegangen ist. Ob ihn das stört, weiß ich aber nicht.","Ben hat erzählt, dass sein Sohn auf die Nerven einigen Nachbarn gegangen ist. Ob ihn das stört, weiß ich aber nicht.",accept,*,17:54:14,17:54:22,7618,4
497,f26,calibration,unrelated,,,,REFL_position,accept,above,"Jan hat versprochen, dass er sich beeilt. Ich hoffe, er schafft es rechtzeitig.","Jan hat versprochen, dass sich er beeilt. Ich hoffe, er schafft es rechtzeitig.",accept,*,17:54:22,17:54:41,19651,5
497,f48,attention,unrelated,,,,V_position,accept,above,"Ich habe mitbekommen, dass der Clown die Zirkusbesucher gelangweilt hat. Ich hoffe, dass sie den Abend trotzdem genossen haben.","Ich habe mitbekommen, dass der Clown die Zirkusbesucher gelangweilt hat. Ich hoffe, dass sie den Abend genossen trotzdem haben.",accept,*,17:54:41,17:54:50,8824,6
497,f27,filler,pseudo_COM,,,,ADV_position,accept,above,"Ich habe mitbekommen, dass Tim sich zusammen mit Ben auf verdächtige Art weggeschlichen hat. Warum er das getan hat, weiß ich aber nicht.","Ich habe mitbekommen, dass Tim zusammen mit Ben sich auf verdächtige Art weggeschlichen hat. Warum er das getan hat, weiß ich aber nicht.",accept,?,17:55:06,17:55:15,8951,8
497,f47,filler,unrelated,,,,V_position,accept,below,"Ich habe mitbekommen, dass der Problemschüler die Lehrer erstaunt hat. Ich hoffe, dass er doch noch versetzt wird.","Ich habe mitbekommen, dass der Problemschüler erstaunt die Lehrer hat. Ich hoffe, dass er doch noch versetzt wird.",accept,*,17:55:23,17:55:28,4537,10
497,f31,attention,unrelated,,,,SUBJ_position,accept,above,"Isa hat versprochen, dass sie sich während der Diät täglich wiegt. Ich hoffe, dass sie ihr Wunschgewicht erreicht.","Isa hat versprochen, dass sie sich während der Diät täglich wiegt. Ich hoffe, dass ihr Wunschgewicht sie erreicht.",accept,*,17:55:34,17:55:53,18266,12
497,f19,attention,pseudo_windef,,,,V_position,accept,below,"Weißt du vielleicht, was Isa bestellt hat? Ich hoffe, es war nichts Teures.","Weißt du vielleicht, was Isa bestellt hat? Ich hoffe, es nichts Teures war.",accept,*,17:56:01,17:56:06,5724,14
497,f40,attention,unrelated,,,,SUBJ_position,accept,below,"Ich habe gehört, dass Tim sich in einen Mann verliebt hat. Wie er das seiner Frau beibringen will, weiß ich aber nicht.","Ich habe gehört, dass Tim sich in einen Mann verliebt hat. Wie das er seiner Frau beibringen will, weiß ich aber nicht.",accept,*,17:56:14,17:56:31,16853,16
497,f45,attention,unrelated,,,,SUBJ_position,accept,above,"Kai hat erzählt, dass der neue Mitarbeiter ihn anwidert. Wie lange er das noch aushält, weiß ich aber nicht.","Kai hat erzählt, dass der neue Mitarbeiter ihn anwidert. Wie lange das noch aushält er, weiß ich aber nicht.",accept,*,17:56:37,17:56:46,8853,18
497,f46,filler,unrelated,,,,SUBJ_position,accept,below,"Ich habe mitbekommen, dass der Beschluss die Bürger aufgewühlt hat. Ich hoffe, dass sich die Gemüter schnell wieder beruhigen.","Ich habe mitbekommen, dass die Bürger der Beschluss aufgewühlt hat. Ich hoffe, dass sich die Gemüter schnell wieder beruhigen.",accept,?,17:56:59,17:57:11,12381,20
497,f35,attention,pseudo_COM,,,,NEG_position,accept,below,"Ben hat erzählt, dass er sich auf heftige Weise mit Pia angelegt hat. Warum genau, weiß ich aber nicht.","Ben hat erzählt, dass er sich auf heftige Weise mit Pia angelegt hat. Warum genau, weiß ich nicht aber.",accept,*,17:57:17,17:57:37,19539,22
497,f13,control,unrelated,,,,order_SUBJ_OBJ,accept,above,"Isa hat erzählt, dass sie die Vorbehalte missbilligt. Was genau vorgefallen ist, weiß ich aber nicht.","Isa hat erzählt, dass die Vorbehalte sie missbilligt. Was genau vorgefallen ist, weiß ich aber nicht.",accept,*,17:57:45,17:57:49,4402,24
497,f33,filler,unrelated,,,,REFL_position,?,above,"Ich habe gehört, dass Uwe sich für einen Ausbildungsberuf entschieden hat. Für welchen genau, weiß ich aber nicht.","Ich habe gehört, dass sich Uwe für einen Ausbildungsberuf entschieden hat. Für welchen genau, weiß ich aber nicht.",accept,?,17:57:49,17:57:57,7380,25
497,f06,control,related,,,,order_SUBJ_OBJfix,accept,below,"Ich habe gehört, dass der Trödler was an den Mann gebracht hat. Was es war, weiß ich aber nicht.","Ich habe gehört, dass was der Trödler an den Mann gebracht hat. Was es war, weiß ich aber nicht.",accept,*,17:58:06,17:58:12,5747,27
497,f43,filler,unrelated,,,,ADV_position,accept,above,"Tim hat erzählt, dass ihn eine Meldung zutiefst schockiert hat. Welche genau, weiß ich aber nicht.","Tim hat erzählt, dass ihn zutiefst eine Meldung schockiert hat. Welche genau, weiß ich aber nicht.",accept,?,17:58:12,17:58:18,5926,28
497,f14,control,unrelated,,,,order_SUBJ_OBJ,accept,above,"Max hat erzählt, dass er Schwarzweißfilme liebt. Was er daran findet, weiß ich aber nicht.","Max hat erzählt, dass Schwarzweißfilme er liebt. Was er daran findet, weiß ich aber nicht.",accept,*,17:58:27,17:58:33,5306,30
497,f20,filler,pseudo_windef,,,,PO_position,accept,below,"Kannst du mir sagen, wen Kim mit dem Fall beauftragt hat? Ich hoffe, es ist jemand mit Erfahrung.","Kannst du mir sagen, wen Kim beauftragt hat mit dem Fall? Ich hoffe, es ist jemand mit Erfahrung.",accept,?,17:58:33,17:58:39,6512,31
497,f08,control,related,,,,order_SUBJ_OBJfix,accept,above,"Ich habe gehört, dass der Vorsitzende was zum Abschluss gebracht hat. Was es war, weiß ich aber nicht.","Ich habe gehört, dass was der Vorsitzende zum Abschluss gebracht hat. Was es war, weiß ich aber nicht.",accept,*,17:58:39,17:58:47,7756,32
497,f24,attention,pseudo_windef,,,,V_position,*,below,"Kannst du mir sagen, was Max zum Tatzeitpunkt gemacht hat? Ich hoffe, er hat ein gutes Alibi.","Kannst du mir sagen, was Max zum Tatzeitpunkt gemacht hat? Ich hoffe, er ein gutes Alibi hat.",accept,*,17:58:54,17:59:00,5926,34
497,f11,control,unrelated,,,,order_SUBJ_OBJ,accept,above,"Ben hat erzählt, dass er seine Nachbarn beneidet. Warum genau, weiß ich aber nicht.","Ben hat erzählt, dass seine Nachbarn er beneidet. Warum genau, weiß ich aber nicht.",accept,*,17:59:00,17:59:04,4534,35
497,f21,attention,pseudo_windef,,,,V_position,accept,below,"Kannst du mir sagen, wen Kai am Samstag in die Oper begleitet hat? Ich hoffe, dass es eine nette Dame war.","Kannst du mir sagen, wen Kai am Samstag in die Oper begleitet hat? Ich hoffe, dass eine nette Dame es war.",accept,*,17:59:15,17:59:31,16416,37
497,f04,control,related,,,,order_SUBJ_OBJfix,accept,above,"Lea hat erzählt, dass der Student was zum Verkauf angeboten hat. Was es war, weiß ich aber nicht.","Lea hat erzählt, dass was der Student zum Verkauf angeboten hat. Was es war, weiß ich aber nicht.",accept,*,17:59:31,17:59:36,5412,38
497,f03,control,related,,,,order_SUBJ_OBJfix,accept,below,"Max hat erzählt, dass der Richter was zur Kenntnis genommen hat. Was es war, weiß ich aber nicht.","Max hat erzählt, dass was der Richter zur Kenntnis genommen hat. Was es war, weiß ich aber nicht.",accept,*,17:59:45,17:59:49,4012,40
497,f29,filler,unrelated,,,,ADV_position,?,below,"Ich habe mitbekommen, dass sich der Sprecher bei der Probe häufig geräuspert hat. Warum genau, weiß ich aber nicht.","Ich habe mitbekommen, dass sich bei der Probe der Sprecher häufig geräuspert hat. Warum genau, weiß ich aber nicht.",accept,?,17:59:49,17:59:58,9005,41
497,f12,control,unrelated,,,,order_SUBJ_OBJ,accept,above,"Kim hat erzählt, dass sie ihren Chef verehrt. Ob das auf Gegenseitigkeit beruht, weiß ich aber nicht.","Kim hat erzählt, dass ihren Chef sie verehrt. Ob das auf Gegenseitigkeit beruht, weiß ich aber nicht.",accept,*,18:00:06,18:00:12,5125,43
497,f28,filler,unrelated,,,,REFL_position,accept,below,"Eva hat erzählt, dass sie sich in der Mittagspause ganz plötzlich übergeben musste. Warum, weiß sie aber auch nicht.","Eva hat erzählt, dass sie in der Mittagspause ganz plötzlich übergeben musste sich. Warum, weiß sie aber auch nicht.",accept,*,18:00:12,18:00:16,4293,44
497,f15,control,unrelated,,,,order_SUBJ_OBJ,accept,above,"Pia hat erzählt, dass sie Zugverspätungen hasst. Ob sie oft betroffen ist, weiß ich aber nicht.","Pia hat erzählt, dass Zugverspätungen sie hasst. Ob sie oft betroffen ist, weiß ich aber nicht.",accept,*,18:00:21,18:00:26,4964,46
497,f37,filler,pseudo_COM,,,,REFL_position,accept,above,"Ich habe mitbekommen, dass Tim sich bei angelehnter Tür mit einem Kommilitonen ausgetauscht hat. Worüber genau, weiß ich aber nicht.","Ich habe mitbekommen, dass Tim bei angelehnter Tür mit einem Kommilitonen ausgetauscht sich hat. Worüber genau, weiß ich aber nicht.",accept,*,18:00:26,18:00:33,7102,47
497,f16,control,unrelated,,,,order_SUBJ_OBJ,accept,above,"Uwe hat erzählt, dass er die Vorkommnisse verurteilt. Was genau vorgefallen ist, weiß ich aber nicht.","Uwe hat erzählt, dass die Vorkommnisse er verurteilt. Was genau vorgefallen ist, weiß ich aber nicht.",accept,*,18:00:33,18:00:41,7283,48
497,f42,attention,unrleated,,,,SUBJ_position,accept,below,"Uwe hat erzählt, dass ihn das Theaterstück auf angenehme Weise entzückt hat. Ich hoffe, dass er nun öfter mitkommt.","Uwe hat erzählt, dass ihn das Theaterstück auf angenehme Weise entzückt hat. Ich hoffe, dass nun er öfter mitkommt.",accept,*,18:00:47,18:00:56,9051,50
497,f23,filler,pseudo_windef,,,,ADV_position,accept,above,"Weißt du vielleicht, wen Tim heute morgen verhaftet hat? Ich hoffe, es war kein Unschuldiger.","Weißt du vielleicht, wen Tim verhaftet hat heute morgen? Ich hoffe, es war kein Unschuldiger.",accept,?,18:01:05,18:01:12,6911,52
497,f39,attention,unrelated,,,,V_position,accept,below,"Lea hat versprochen, dass sie sich bis morgen über die Finanzierungsmöglichkeiten informiert. Ich hoffe, dass wir einen Kredit bekommen.","Lea hat versprochen, dass sie sich bis morgen über die Finanzierungsmöglichkeiten informiert. Ich hoffe, dass wir bekommen einen Kredit.",accept,*,18:01:22,18:01:28,5967,54
497,f38,filler,unrelated,,,,PO_position,accept,below,"Ich habe mitbekommen, dass Kai sich bei der Stadt beworben hat. Ob er gute Chancen hat, weiß ich aber nicht.","Ich habe mitbekommen, dass Kai bei der Stadt sich beworben hat. Ob er gute Chancen hat, weiß ich aber nicht.",accept,?,18:01:40,18:01:42,2743,56
497,f01,control,related,,,,order_SUBJ_OBJfix,accept,above,"Ich habe gehört, dass der Geschäftsmann was in Anspruch genommen hat. Was es war, weiß ich aber nicht.","Ich habe gehört, dass was der Geschäftsmann in Anspruch genommen hat. Was es war, weiß ich aber nicht.",accept,*,18:01:42,18:01:48,5915,57
497,f10,control,unrelated,,,,order_SUBJ_OBJ,accept,above,"Uwe hat erzählt, dass er Schlagerlieder verabscheut. Seit wann das so ist, weiß ich aber nicht.","Uwe hat erzählt, dass Schlagerlieder er verabscheut. Seit wann das so ist, weiß ich aber nicht.",accept,*,18:01:58,18:02:03,4779,59
497,f17,attention,pseudo_windef,,,,NEG_position,accept,below,"Kannst du mir sagen, wen Uwe gefeuert hat? Ich hoffe, es war nicht Ben.","Kannst du mir sagen, wen Uwe gefeuert hat? Ich hoffe, es nicht war Ben.",accept,*,18:02:03,18:02:10,6938,60
497,f05,control,related,,,,order_SUBJ_OBJfix,accept,below,"Ich habe gehört, dass der Politiker was unter Verschluss gehalten hat. Was es war, weiß ich aber nicht.","Ich habe gehört, dass was der Politiker unter Verschluss gehalten hat. Was es war, weiß ich aber nicht.",accept,*,18:02:10,18:02:14,4135,61
497,f22,filler,pseudo_windef,,,,ADV_position,accept,above,"Weißt du vielleicht, wen Lea gerade angerufen hat? Ich hoffe, dass es keine teure Hotline war.","Weißt du vielleicht, wen Lea angerufen hat gerade? Ich hoffe, dass es keine teure Hotline war.",accept,?,18:02:20,18:02:28,8436,63
497,f09,control,unrelated,,,,order_SUBJ_OBJ,accept,above,"Lea hat erzählt, dass sie die Speisen genossen hat. Ob das stimmt, weiß ich aber nicht.","Lea hat erzählt, dass die Speisen sie genossen hat. Ob das stimmt, weiß ich aber nicht.",accept,*,18:02:28,18:02:34,5185,64
497,f30,filler,unrelated,,,,ADV_position,accept,above,"Eva hat versprochen, dass sie sich vor dem Sport immer bei geöffnetem Fenster dehnt. Ich hoffe, sie hält sich auch daran.","Eva hat versprochen, dass sie sich immer bei geöffnetem Fenster dehnt vor dem Sport. Ich hoffe, sie hält sich auch daran.",accept,?,18:02:39,18:02:50,11687,66
497,f07,control,related,,,,order_SUBJ_OBJfix,accept,above,"Isa hat erzählt, dass der Ermittler was auf den Kopf gestellt hat. Was es war, weiß ich aber nicht.","Isa hat erzählt, dass was der Ermittler auf den Kopf gestellt hat. Was es war, weiß ich aber nicht.",accept,*,18:02:50,18:02:57,6225,67
497,f02,control,related,,,,order_SUBJ_OBJfix,accept,above,"Pia hat erzählt, dass der Abteilungsleiter was in Aussicht gestellt hat. Was es war, weiß ich aber nicht.","Pia hat erzählt, dass was der Abteilungsleiter in Aussicht gestellt hat. Was es war, weiß ich aber nicht.",accept,*,18:03:01,18:03:05,4177,69
497,f41,filler,unrelated,,,,PO_position,accept,above,"Tim hat erzählt, dass er Uwe mit seiner unkonventionellen Art beeindruckt hat. Was genau passiert ist, weiß ich aber nicht.","Tim hat erzählt, dass er mit seiner unkonventionellen Art Uwe beeindruckt hat. Was genau passiert ist, weiß ich aber nicht.",accept,?,18:03:05,18:03:18,12761,70
497,f32,attention,unrelated,,,,SUBJ_position,accept,below,"Max hat versprochen, dass er sich von nun an in der Schule benimmt. Ich hoffe, dass er seine Unruhe in den Griff bekommt.","Max hat versprochen, dass er sich von nun an in der Schule benimmt. Ich hoffe, dass seine Unruhe in den Griff er bekommt.",accept,*,18:03:18,18:03:26,7434,71
496,f34,calibration,unrelated,,,,PO_position,accept,below,"Ich habe gehört, dass Lea sich bei Max gemeldet hat. Warum genau, weiß ich aber nicht.","Ich habe gehört, dass Lea bei Max sich gemeldet hat. Warum genau, weiß ich aber nicht.",accept,?,17:54:29,17:54:34,5046,0
496,f18,calibration,pseudo_windef,,,,SUBJ_position,accept,above,"Weißt du vielleicht, was Tim gerade eben aus dem Fenster geschmissen hat? Ich hoffe, es war kein Blumentopf.","Weißt du vielleicht, was gerade eben aus dem Fenster geschmissen Tim hat? Ich hoffe, es war kein Blumentopf.",accept,*,17:54:34,17:54:43,9324,1
496,f26,calibration,unrelated,,,,REFL_position,accept,above,"Jan hat versprochen, dass er sich beeilt. Ich hoffe, er schafft es rechtzeitig.","Jan hat versprochen, dass sich er beeilt. Ich hoffe, er schafft es rechtzeitig.",accept,*,17:54:43,17:54:49,6046,2
496,f36,calibration,unrelated,,,,REFL_position,?,below,"Ich habe gehört, dass Pia sich für ihre Verhaltensweise geschämt hat. Was genau vorgefallen ist, weiß ich aber nicht.","Ich habe gehört, dass sich Pia für ihre Verhaltensweise geschämt hat. Was genau vorgefallen ist, weiß ich aber nicht.",accept,?,17:54:49,17:55:03,14241,3
496,f25,calibration,unrelated,,,,ADV_position,accept,below,"Kim hat erzählt, dass sie sich gerade unglaublich zusammenreißen musste. Warum genau, weiß ich aber nicht.","Kim hat erzählt, dass sie sich unglaublich gerade zusammenreißen musste. Warum genau, weiß ich aber nicht.",accept,?,17:55:03,17:55:08,4921,4
496,f44,calibration,unrelated,,,,PO_position,accept,below,"Ben hat erzählt, dass sein Sohn einigen Nachbarn auf die Nerven gegangen ist. Ob ihn das stört, weiß ich aber nicht.","Ben hat erzählt, dass sein Sohn auf die Nerven einigen Nachbarn gegangen ist. Ob ihn das stört, weiß ich aber nicht.",accept,*,17:55:08,17:55:15,6453,5
496,f37,filler,pseudo_COM,,,,REFL_position,accept,above,"Ich habe mitbekommen, dass Tim sich bei angelehnter Tür mit einem Kommilitonen ausgetauscht hat. Worüber genau, weiß ich aber nicht.","Ich habe mitbekommen, dass Tim bei angelehnter Tür mit einem Kommilitonen ausgetauscht sich hat. Worüber genau, weiß ich aber nicht.",accept,*,17:55:15,17:55:32,17577,6
496,f32,attention,unrelated,,,,SUBJ_position,*,above,"Max hat versprochen, dass er sich von nun an in der Schule benimmt. Ich hoffe, dass er seine Unruhe in den Griff bekommt.","Max hat versprochen, dass er sich von nun an in der Schule benimmt. Ich hoffe, dass seine Unruhe in den Griff er bekommt.",accept,*,17:55:40,17:55:44,4289,8
496,f38,filler,unrelated,,,,PO_position,accept,above,"Ich habe mitbekommen, dass Kai sich bei der Stadt beworben hat. Ob er gute Chancen hat, weiß ich aber nicht.","Ich habe mitbekommen, dass Kai bei der Stadt sich beworben hat. Ob er gute Chancen hat, weiß ich aber nicht.",accept,?,17:55:50,17:55:57,6660,10
496,f30,filler,unrelated,,,,ADV_position,accept,below,"Eva hat versprochen, dass sie sich vor dem Sport immer bei geöffnetem Fenster dehnt. Ich hoffe, sie hält sich auch daran.","Eva hat versprochen, dass sie sich immer bei geöffnetem Fenster dehnt vor dem Sport. Ich hoffe, sie hält sich auch daran.",accept,?,17:56:09,17:56:17,7516,12
496,f19,attention,pseudo_windef,,,,V_position,accept,above,"Weißt du vielleicht, was Isa bestellt hat? Ich hoffe, es war nichts Teures.","Weißt du vielleicht, was Isa bestellt hat? Ich hoffe, es nichts Teures war.",accept,*,17:56:24,17:56:31,6825,14
496,f45,attention,unrelated,,,,SUBJ_position,accept,below,"Kai hat erzählt, dass der neue Mitarbeiter ihn anwidert. Wie lange er das noch aushält, weiß ich aber nicht.","Kai hat erzählt, dass der neue Mitarbeiter ihn anwidert. Wie lange das noch aushält er, weiß ich aber nicht.",accept,*,17:56:39,17:56:50,10372,16
496,f42,attention,unrleated,,,,SUBJ_position,accept,below,"Uwe hat erzählt, dass ihn das Theaterstück auf angenehme Weise entzückt hat. Ich hoffe, dass er nun öfter mitkommt.","Uwe hat erzählt, dass ihn das Theaterstück auf angenehme Weise entzückt hat. Ich hoffe, dass nun er öfter mitkommt.",accept,*,17:56:57,17:57:18,21091,18
496,f46,filler,unrelated,,,,SUBJ_position,accept,above,"Ich habe mitbekommen, dass der Beschluss die Bürger aufgewühlt hat. Ich hoffe, dass sich die Gemüter schnell wieder beruhigen.","Ich habe mitbekommen, dass die Bürger der Beschluss aufgewühlt hat. Ich hoffe, dass sich die Gemüter schnell wieder beruhigen.",accept,?,17:57:27,17:57:32,4909,20
496,f24,attention,pseudo_windef,,,,V_position,accept,above,"Kannst du mir sagen, was Max zum Tatzeitpunkt gemacht hat? Ich hoffe, er hat ein gutes Alibi.","Kannst du mir sagen, was Max zum Tatzeitpunkt gemacht hat? Ich hoffe, er ein gutes Alibi hat.",accept,*,17:57:42,17:57:50,7214,22
496,f14,control,unrelated,,,,order_SUBJ_OBJ,accept,below,"Max hat erzählt, dass er Schwarzweißfilme liebt. Was er daran findet, weiß ich aber nicht.","Max hat erzählt, dass Schwarzweißfilme er liebt. Was er daran findet, weiß ich aber nicht.",accept,*,17:57:59,17:58:05,5463,24
496,f48,attention,unrelated,,,,V_position,accept,above,"Ich habe mitbekommen, dass der Clown die Zirkusbesucher gelangweilt hat. Ich hoffe, dass sie den Abend trotzdem genossen haben.","Ich habe mitbekommen, dass der Clown die Zirkusbesucher gelangweilt hat. Ich hoffe, dass sie den Abend genossen trotzdem haben.",accept,*,17:58:05,17:58:12,7681,25
496,f01,control,related,,,,order_SUBJ_OBJfix,accept,above,"Ich habe gehört, dass der Geschäftsmann was in Anspruch genommen hat. Was es war, weiß ich aber nicht.","Ich habe gehört, dass was der Geschäftsmann in Anspruch genommen hat. Was es war, weiß ich aber nicht.",accept,*,17:58:12,17:58:19,6195,26
496,f27,filler,pseudo_COM,,,,ADV_position,accept,above,"Ich habe mitbekommen, dass Tim sich zusammen mit Ben auf verdächtige Art weggeschlichen hat. Warum er das getan hat, weiß ich aber nicht.","Ich habe mitbekommen, dass Tim zusammen mit Ben sich auf verdächtige Art weggeschlichen hat. Warum er das getan hat, weiß ich aber nicht.",accept,?,17:58:32,17:58:41,9073,28
496,f13,control,unrelated,,,,order_SUBJ_OBJ,accept,above,"Isa hat erzählt, dass sie die Vorbehalte missbilligt. Was genau vorgefallen ist, weiß ich aber nicht.","Isa hat erzählt, dass die Vorbehalte sie missbilligt. Was genau vorgefallen ist, weiß ich aber nicht.",accept,*,17:58:41,17:58:48,7474,29
496,f15,control,unrelated,,,,order_SUBJ_OBJ,accept,above,"Pia hat erzählt, dass sie Zugverspätungen hasst. Ob sie oft betroffen ist, weiß ich aber nicht.","Pia hat erzählt, dass Zugverspätungen sie hasst. Ob sie oft betroffen ist, weiß ich aber nicht.",accept,*,17:58:54,17:59:03,8941,31
496,f41,filler,unrelated,,,,PO_position,accept,above,"Tim hat erzählt, dass er Uwe mit seiner unkonventionellen Art beeindruckt hat. Was genau passiert ist, weiß ich aber nicht.","Tim hat erzählt, dass er mit seiner unkonventionellen Art Uwe beeindruckt hat. Was genau passiert ist, weiß ich aber nicht.",accept,?,17:59:03,17:59:12,8293,32
496,f11,control,unrelated,,,,order_SUBJ_OBJ,accept,above,"Ben hat erzählt, dass er seine Nachbarn beneidet. Warum genau, weiß ich aber nicht.","Ben hat erzählt, dass seine Nachbarn er beneidet. Warum genau, weiß ich aber nicht.",accept,*,17:59:21,17:59:28,7514,34
496,f21,attention,pseudo_windef,,,,V_position,accept,below,"Kannst du mir sagen, wen Kai am Samstag in die Oper begleitet hat? Ich hoffe, dass es eine nette Dame war.","Kannst du mir sagen, wen Kai am Samstag in die Oper begleitet hat? Ich hoffe, dass eine nette Dame es war.",accept,*,17:59:28,17:59:35,6595,35
496,f10,control,unrelated,,,,order_SUBJ_OBJ,accept,above,"Uwe hat erzählt, dass er Schlagerlieder verabscheut. Seit wann das so ist, weiß ich aber nicht.","Uwe hat erzählt, dass Schlagerlieder er verabscheut. Seit wann das so ist, weiß ich aber nicht.",accept,*,17:59:45,17:59:51,5919,37
496,f17,attention,pseudo_windef,,,,NEG_position,accept,below,"Kannst du mir sagen, wen Uwe gefeuert hat? Ich hoffe, es war nicht Ben.","Kannst du mir sagen, wen Uwe gefeuert hat? Ich hoffe, es nicht war Ben.",accept,*,17:59:51,18:00:03,11682,38
496,f05,control,related,,,,order_SUBJ_OBJfix,accept,below,"Ich habe gehört, dass der Politiker was unter Verschluss gehalten hat. Was es war, weiß ich aber nicht.","Ich habe gehört, dass was der Politiker unter Verschluss gehalten hat. Was es war, weiß ich aber nicht.",accept,*,18:00:09,18:00:15,6367,40
496,f28,filler,unrelated,,,,REFL_position,accept,below,"Eva hat erzählt, dass sie sich in der Mittagspause ganz plötzlich übergeben musste. Warum, weiß sie aber auch nicht.","Eva hat erzählt, dass sie in der Mittagspause ganz plötzlich übergeben musste sich. Warum, weiß sie aber auch nicht.",accept,*,18:00:15,18:00:22,6789,41
496,f22,filler,pseudo_windef,,,,ADV_position,accept,above,"Weißt du vielleicht, wen Lea gerade angerufen hat? Ich hoffe, dass es keine teure Hotline war.","Weißt du vielleicht, wen Lea angerufen hat gerade? Ich hoffe, dass es keine teure Hotline war.",accept,?,18:00:29,18:00:35,5269,43
496,f07,control,related,,,,order_SUBJ_OBJfix,accept,above,"Isa hat erzählt, dass der Ermittler was auf den Kopf gestellt hat. Was es war, weiß ich aber nicht.","Isa hat erzählt, dass was der Ermittler auf den Kopf gestellt hat. Was es war, weiß ich aber nicht.",accept,*,18:00:35,18:00:44,9555,44
496,f43,filler,unrelated,,,,ADV_position,accept,below,"Tim hat erzählt, dass ihn eine Meldung zutiefst schockiert hat. Welche genau, weiß ich aber nicht.","Tim hat erzählt, dass ihn zutiefst eine Meldung schockiert hat. Welche genau, weiß ich aber nicht.",accept,?,18:00:49,18:00:54,5038,46
496,f08,control,related,,,,order_SUBJ_OBJfix,accept,below,"Ich habe gehört, dass der Vorsitzende was zum Abschluss gebracht hat. Was es war, weiß ich aber nicht.","Ich habe gehört, dass was der Vorsitzende zum Abschluss gebracht hat. Was es war, weiß ich aber nicht.",accept,*,18:00:54,18:00:58,3862,47
496,f35,attention,pseudo_COM,,,,NEG_position,accept,above,"Ben hat erzählt, dass er sich auf heftige Weise mit Pia angelegt hat. Warum genau, weiß ich aber nicht.","Ben hat erzählt, dass er sich auf heftige Weise mit Pia angelegt hat. Warum genau, weiß ich nicht aber.",accept,*,18:01:05,18:01:11,6689,49
496,f02,control,related,,,,order_SUBJ_OBJfix,accept,above,"Pia hat erzählt, dass der Abteilungsleiter was in Aussicht gestellt hat. Was es war, weiß ich aber nicht.","Pia hat erzählt, dass was der Abteilungsleiter in Aussicht gestellt hat. Was es war, weiß ich aber nicht.",accept,*,18:01:11,18:01:22,10791,50
496,f12,control,unrelated,,,,order_SUBJ_OBJ,accept,above,"Kim hat erzählt, dass sie ihren Chef verehrt. Ob das auf Gegenseitigkeit beruht, weiß ich aber nicht.","Kim hat erzählt, dass ihren Chef sie verehrt. Ob das auf Gegenseitigkeit beruht, weiß ich aber nicht.",accept,*,18:01:31,18:01:36,5422,52
496,f31,attention,unrelated,,,,SUBJ_position,accept,below,"Isa hat versprochen, dass sie sich während der Diät täglich wiegt. Ich hoffe, dass sie ihr Wunschgewicht erreicht.","Isa hat versprochen, dass sie sich während der Diät täglich wiegt. Ich hoffe, dass ihr Wunschgewicht sie erreicht.",accept,*,18:01:36,18:01:45,8662,53
496,f33,filler,unrelated,,,,REFL_position,?,below,"Ich habe gehört, dass Uwe sich für einen Ausbildungsberuf entschieden hat. Für welchen genau, weiß ich aber nicht.","Ich habe gehört, dass sich Uwe für einen Ausbildungsberuf entschieden hat. Für welchen genau, weiß ich aber nicht.",accept,?,18:01:53,18:02:01,7567,55
496,f04,control,related,,,,order_SUBJ_OBJfix,accept,below,"Lea hat erzählt, dass der Student was zum Verkauf angeboten hat. Was es war, weiß ich aber nicht.","Lea hat erzählt, dass was der Student zum Verkauf angeboten hat. Was es war, weiß ich aber nicht.",accept,*,18:02:01,18:02:07,5990,56
496,f47,filler,unrelated,,,,V_position,accept,below,"Ich habe mitbekommen, dass der Problemschüler die Lehrer erstaunt hat. Ich hoffe, dass er doch noch versetzt wird.","Ich habe mitbekommen, dass der Problemschüler erstaunt die Lehrer hat. Ich hoffe, dass er doch noch versetzt wird.",accept,*,18:02:14,18:02:21,6395,58
496,f03,control,related,,,,order_SUBJ_OBJfix,accept,above,"Max hat erzählt, dass der Richter was zur Kenntnis genommen hat. Was es war, weiß ich aber nicht.","Max hat erzählt, dass was der Richter zur Kenntnis genommen hat. Was es war, weiß ich aber nicht.",accept,*,18:02:21,18:02:25,4455,59
496,f40,attention,unrelated,,,,SUBJ_position,accept,below,"Ich habe gehört, dass Tim sich in einen Mann verliebt hat. Wie er das seiner Frau beibringen will, weiß ich aber nicht.","Ich habe gehört, dass Tim sich in einen Mann verliebt hat. Wie das er seiner Frau beibringen will, weiß ich aber nicht.",accept,*,18:02:33,18:02:39,6374,61
496,f09,control,unrelated,,,,order_SUBJ_OBJ,accept,above,"Lea hat erzählt, dass sie die Speisen genossen hat. Ob das stimmt, weiß ich aber nicht.","Lea hat erzählt, dass die Speisen sie genossen hat. Ob das stimmt, weiß ich aber nicht.",accept,*,18:02:39,18:02:59,19800,62
496,f23,filler,pseudo_windef,,,,ADV_position,accept,below,"Weißt du vielleicht, wen Tim heute morgen verhaftet hat? Ich hoffe, es war kein Unschuldiger.","Weißt du vielleicht, wen Tim verhaftet hat heute morgen? Ich hoffe, es war kein Unschuldiger.",accept,?,18:03:12,18:03:16,3939,64
496,f06,control,related,,,,order_SUBJ_OBJfix,accept,below,"Ich habe gehört, dass der Trödler was an den Mann gebracht hat. Was es war, weiß ich aber nicht.","Ich habe gehört, dass was der Trödler an den Mann gebracht hat. Was es war, weiß ich aber nicht.",accept,*,18:03:16,18:03:20,4016,65
496,f20,filler,pseudo_windef,,,,PO_position,accept,above,"Kannst du mir sagen, wen Kim mit dem Fall beauftragt hat? Ich hoffe, es ist jemand mit Erfahrung.","Kannst du mir sagen, wen Kim beauftragt hat mit dem Fall? Ich hoffe, es ist jemand mit Erfahrung.",accept,?,18:03:28,18:03:34,6248,67
496,f16,control,unrelated,,,,order_SUBJ_OBJ,accept,below,"Uwe hat erzählt, dass er die Vorkommnisse verurteilt. Was genau vorgefallen ist, weiß ich aber nicht.","Uwe hat erzählt, dass die Vorkommnisse er verurteilt. Was genau vorgefallen ist, weiß ich aber nicht.",accept,*,18:03:40,18:03:43,3520,69
496,f29,filler,unrelated,,,,ADV_position,accept,below,"Ich habe mitbekommen, dass sich der Sprecher bei der Probe häufig geräuspert hat. Warum genau, weiß ich aber nicht.","Ich habe mitbekommen, dass sich bei der Probe der Sprecher häufig geräuspert hat. Warum genau, weiß ich aber nicht.",accept,?,18:03:43,18:03:49,5652,70
496,f39,attention,unrelated,,,,V_position,accept,below,"Lea hat versprochen, dass sie sich bis morgen über die Finanzierungsmöglichkeiten informiert. Ich hoffe, dass wir einen Kredit bekommen.","Lea hat versprochen, dass sie sich bis morgen über die Finanzierungsmöglichkeiten informiert. Ich hoffe, dass wir bekommen einen Kredit.",accept,*,18:03:49,18:03:55,6218,71
495,f26,calibration,unrelated,,,,REFL_position,accept,above,"Jan hat versprochen, dass er sich beeilt. Ich hoffe, er schafft es rechtzeitig.","Jan hat versprochen, dass sich er beeilt. Ich hoffe, er schafft es rechtzeitig.",accept,*,17:51:23,17:51:29,6090,0
495,f18,calibration,pseudo_windef,,,,SUBJ_position,accept,above,"Weißt du vielleicht, was Tim gerade eben aus dem Fenster geschmissen hat? Ich hoffe, es war kein Blumentopf.","Weißt du vielleicht, was gerade eben aus dem Fenster geschmissen Tim hat? Ich hoffe, es war kein Blumentopf.",accept,*,17:51:29,17:51:35,6394,1
495,f34,calibration,unrelated,,,,PO_position,accept,below,"Ich habe gehört, dass Lea sich bei Max gemeldet hat. Warum genau, weiß ich aber nicht.","Ich habe gehört, dass Lea bei Max sich gemeldet hat. Warum genau, weiß ich aber nicht.",accept,?,17:51:35,17:51:42,6429,2
495,f25,calibration,unrelated,,,,ADV_position,accept,below,"Kim hat erzählt, dass sie sich gerade unglaublich zusammenreißen musste. Warum genau, weiß ich aber nicht.","Kim hat erzählt, dass sie sich unglaublich gerade zusammenreißen musste. Warum genau, weiß ich aber nicht.",accept,?,17:51:42,17:51:49,7324,3
495,f44,calibration,unrelated,,,,PO_position,accept,above,"Ben hat erzählt, dass sein Sohn einigen Nachbarn auf die Nerven gegangen ist. Ob ihn das stört, weiß ich aber nicht.","Ben hat erzählt, dass sein Sohn auf die Nerven einigen Nachbarn gegangen ist. Ob ihn das stört, weiß ich aber nicht.",accept,*,17:51:49,17:51:56,6995,4
495,f36,calibration,unrelated,,,,REFL_position,accept,below,"Ich habe gehört, dass Pia sich für ihre Verhaltensweise geschämt hat. Was genau vorgefallen ist, weiß ich aber nicht.","Ich habe gehört, dass sich Pia für ihre Verhaltensweise geschämt hat. Was genau vorgefallen ist, weiß ich aber nicht.",accept,?,17:51:56,17:52:03,7130,5
495,f35,attention,pseudo_COM,,,,NEG_position,accept,below,"Ben hat erzählt, dass er sich auf heftige Weise mit Pia angelegt hat. Warum genau, weiß ich aber nicht.","Ben hat erzählt, dass er sich auf heftige Weise mit Pia angelegt hat. Warum genau, weiß ich nicht aber.",accept,*,17:52:03,17:52:09,5991,6
495,f37,filler,pseudo_COM,,,,REFL_position,accept,below,"Ich habe mitbekommen, dass Tim sich bei angelehnter Tür mit einem Kommilitonen ausgetauscht hat. Worüber genau, weiß ich aber nicht.","Ich habe mitbekommen, dass Tim bei angelehnter Tür mit einem Kommilitonen ausgetauscht sich hat. Worüber genau, weiß ich aber nicht.",accept,*,17:52:23,17:52:29,6509,8
495,f24,attention,pseudo_windef,,,,V_position,accept,above,"Kannst du mir sagen, was Max zum Tatzeitpunkt gemacht hat? Ich hoffe, er hat ein gutes Alibi.","Kannst du mir sagen, was Max zum Tatzeitpunkt gemacht hat? Ich hoffe, er ein gutes Alibi hat.",accept,*,17:52:38,17:52:48,9667,10
495,f19,attention,pseudo_windef,,,,V_position,accept,below,"Weißt du vielleicht, was Isa bestellt hat? Ich hoffe, es war nichts Teures.","Weißt du vielleicht, was Isa bestellt hat? Ich hoffe, es nichts Teures war.",accept,*,17:52:54,17:52:58,3578,12
495,f38,filler,unrelated,,,,PO_position,accept,below,"Ich habe mitbekommen, dass Kai sich bei der Stadt beworben hat. Ob er gute Chancen hat, weiß ich aber nicht.","Ich habe mitbekommen, dass Kai bei der Stadt sich beworben hat. Ob er gute Chancen hat, weiß ich aber nicht.",accept,?,17:53:05,17:53:09,4425,14
495,f30,filler,unrelated,,,,ADV_position,accept,below,"Eva hat versprochen, dass sie sich vor dem Sport immer bei geöffnetem Fenster dehnt. Ich hoffe, sie hält sich auch daran.","Eva hat versprochen, dass sie sich immer bei geöffnetem Fenster dehnt vor dem Sport. Ich hoffe, sie hält sich auch daran.",accept,?,17:53:19,17:53:27,8284,16
495,f47,filler,unrelated,,,,V_position,accept,below,"Ich habe mitbekommen, dass der Problemschüler die Lehrer erstaunt hat. Ich hoffe, dass er doch noch versetzt wird.","Ich habe mitbekommen, dass der Problemschüler erstaunt die Lehrer hat. Ich hoffe, dass er doch noch versetzt wird.",accept,*,17:53:33,17:53:41,7268,18
495,f40,attention,unrelated,,,,SUBJ_position,accept,below,"Ich habe gehört, dass Tim sich in einen Mann verliebt hat. Wie er das seiner Frau beibringen will, weiß ich aber nicht.","Ich habe gehört, dass Tim sich in einen Mann verliebt hat. Wie das er seiner Frau beibringen will, weiß ich aber nicht.",accept,*,17:53:50,17:53:54,4501,20
495,f41,filler,unrelated,,,,PO_position,?,above,"Tim hat erzählt, dass er Uwe mit seiner unkonventionellen Art beeindruckt hat. Was genau passiert ist, weiß ich aber nicht.","Tim hat erzählt, dass er mit seiner unkonventionellen Art Uwe beeindruckt hat. Was genau passiert ist, weiß ich aber nicht.",accept,?,17:54:00,17:54:07,6855,22
495,f45,attention,unrelated,,,,SUBJ_position,accept,above,"Kai hat erzählt, dass der neue Mitarbeiter ihn anwidert. Wie lange er das noch aushält, weiß ich aber nicht.","Kai hat erzählt, dass der neue Mitarbeiter ihn anwidert. Wie lange das noch aushält er, weiß ich aber nicht.",accept,*,17:54:15,17:54:25,9918,24
495,f43,filler,unrelated,,,,ADV_position,accept,below,"Tim hat erzählt, dass ihn eine Meldung zutiefst schockiert hat. Welche genau, weiß ich aber nicht.","Tim hat erzählt, dass ihn zutiefst eine Meldung schockiert hat. Welche genau, weiß ich aber nicht.",accept,?,17:54:42,17:54:47,5007,26
495,f05,control,related,,,,order_SUBJ_OBJfix,accept,below,"Ich habe gehört, dass der Politiker was unter Verschluss gehalten hat. Was es war, weiß ich aber nicht.","Ich habe gehört, dass was der Politiker unter Verschluss gehalten hat. Was es war, weiß ich aber nicht.",accept,*,17:54:53,17:55:00,6766,28
495,f20,filler,pseudo_windef,,,,PO_position,accept,below,"Kannst du mir sagen, wen Kim mit dem Fall beauftragt hat? Ich hoffe, es ist jemand mit Erfahrung.","Kannst du mir sagen, wen Kim beauftragt hat mit dem Fall? Ich hoffe, es ist jemand mit Erfahrung.",accept,?,17:55:00,17:55:06,6540,29
495,f28,filler,unrelated,,,,REFL_position,accept,above,"Eva hat erzählt, dass sie sich in der Mittagspause ganz plötzlich übergeben musste. Warum, weiß sie aber auch nicht.","Eva hat erzählt, dass sie in der Mittagspause ganz plötzlich übergeben musste sich. Warum, weiß sie aber auch nicht.",accept,*,17:55:13,17:55:18,5576,31
495,f27,filler,pseudo_COM,,,,ADV_position,accept,above,"Ich habe mitbekommen, dass Tim sich zusammen mit Ben auf verdächtige Art weggeschlichen hat. Warum er das getan hat, weiß ich aber nicht.","Ich habe mitbekommen, dass Tim zusammen mit Ben sich auf verdächtige Art weggeschlichen hat. Warum er das getan hat, weiß ich aber nicht.",accept,?,17:55:26,17:55:36,9568,33
495,f13,control,unrelated,,,,order_SUBJ_OBJ,accept,above,"Isa hat erzählt, dass sie die Vorbehalte missbilligt. Was genau vorgefallen ist, weiß ich aber nicht.","Isa hat erzählt, dass die Vorbehalte sie missbilligt. Was genau vorgefallen ist, weiß ich aber nicht.",accept,*,17:55:43,17:55:49,5807,35
495,f21,attention,pseudo_windef,,,,V_position,accept,below,"Kannst du mir sagen, wen Kai am Samstag in die Oper begleitet hat? Ich hoffe, dass es eine nette Dame war.","Kannst du mir sagen, wen Kai am Samstag in die Oper begleitet hat? Ich hoffe, dass eine nette Dame es war.",accept,*,17:55:49,17:55:55,6132,36
495,f12,control,unrelated,,,,order_SUBJ_OBJ,accept,above,"Kim hat erzählt, dass sie ihren Chef verehrt. Ob das auf Gegenseitigkeit beruht, weiß ich aber nicht.","Kim hat erzählt, dass ihren Chef sie verehrt. Ob das auf Gegenseitigkeit beruht, weiß ich aber nicht.",accept,*,17:56:01,17:56:06,4516,38
495,f22,filler,pseudo_windef,,,,ADV_position,?,below,"Weißt du vielleicht, wen Lea gerade angerufen hat? Ich hoffe, dass es keine teure Hotline war.","Weißt du vielleicht, wen Lea angerufen hat gerade? Ich hoffe, dass es keine teure Hotline war.",accept,?,17:56:06,17:56:18,11965,39
495,f08,control,related,,,,order_SUBJ_OBJfix,accept,below,"Ich habe gehört, dass der Vorsitzende was zum Abschluss gebracht hat. Was es war, weiß ich aber nicht.","Ich habe gehört, dass was der Vorsitzende zum Abschluss gebracht hat. Was es war, weiß ich aber nicht.",accept,*,17:56:27,17:56:31,4181,41
495,f17,attention,pseudo_windef,,,,NEG_position,accept,below,"Kannst du mir sagen, wen Uwe gefeuert hat? Ich hoffe, es war nicht Ben.","Kannst du mir sagen, wen Uwe gefeuert hat? Ich hoffe, es nicht war Ben.",accept,*,17:56:31,17:56:36,4173,42
495,f09,control,unrelated,,,,order_SUBJ_OBJ,accept,above,"Lea hat erzählt, dass sie die Speisen genossen hat. Ob das stimmt, weiß ich aber nicht.","Lea hat erzählt, dass die Speisen sie genossen hat. Ob das stimmt, weiß ich aber nicht.",accept,*,17:56:36,17:56:41,4981,43
495,f46,filler,unrelated,,,,SUBJ_position,accept,below,"Ich habe mitbekommen, dass der Beschluss die Bürger aufgewühlt hat. Ich hoffe, dass sich die Gemüter schnell wieder beruhigen.","Ich habe mitbekommen, dass die Bürger der Beschluss aufgewühlt hat. Ich hoffe, dass sich die Gemüter schnell wieder beruhigen.",accept,?,17:56:50,17:56:57,6773,45
495,f02,control,related,,,,order_SUBJ_OBJfix,accept,above,"Pia hat erzählt, dass der Abteilungsleiter was in Aussicht gestellt hat. Was es war, weiß ich aber nicht.","Pia hat erzählt, dass was der Abteilungsleiter in Aussicht gestellt hat. Was es war, weiß ich aber nicht.",accept,*,17:56:57,17:57:01,4983,46
495,f10,control,unrelated,,,,order_SUBJ_OBJ,accept,below,"Uwe hat erzählt, dass er Schlagerlieder verabscheut. Seit wann das so ist, weiß ich aber nicht.","Uwe hat erzählt, dass Schlagerlieder er verabscheut. Seit wann das so ist, weiß ich aber nicht.",accept,*,17:57:09,17:57:13,4148,48
495,f48,attention,unrelated,,,,V_position,accept,above,"Ich habe mitbekommen, dass der Clown die Zirkusbesucher gelangweilt hat. Ich hoffe, dass sie den Abend trotzdem genossen haben.","Ich habe mitbekommen, dass der Clown die Zirkusbesucher gelangweilt hat. Ich hoffe, dass sie den Abend genossen trotzdem haben.",accept,*,17:57:13,17:57:19,5104,49
495,f07,control,related,,,,order_SUBJ_OBJfix,accept,above,"Isa hat erzählt, dass der Ermittler was auf den Kopf gestellt hat. Was es war, weiß ich aber nicht.","Isa hat erzählt, dass was der Ermittler auf den Kopf gestellt hat. Was es war, weiß ich aber nicht.",accept,*,17:57:19,17:57:27,8403,50
495,f03,control,related,,,,order_SUBJ_OBJfix,accept,above,"Max hat erzählt, dass der Richter was zur Kenntnis genommen hat. Was es war, weiß ich aber nicht.","Max hat erzählt, dass was der Richter zur Kenntnis genommen hat. Was es war, weiß ich aber nicht.",accept,*,17:57:32,17:57:38,6010,52
495,f39,attention,unrelated,,,,V_position,accept,below,"Lea hat versprochen, dass sie sich bis morgen über die Finanzierungsmöglichkeiten informiert. Ich hoffe, dass wir einen Kredit bekommen.","Lea hat versprochen, dass sie sich bis morgen über die Finanzierungsmöglichkeiten informiert. Ich hoffe, dass wir bekommen einen Kredit.",accept,*,17:57:38,17:57:44,6276,53
495,f42,attention,unrleated,,,,SUBJ_position,accept,above,"Uwe hat erzählt, dass ihn das Theaterstück auf angenehme Weise entzückt hat. Ich hoffe, dass er nun öfter mitkommt.","Uwe hat erzählt, dass ihn das Theaterstück auf angenehme Weise entzückt hat. Ich hoffe, dass nun er öfter mitkommt.",accept,*,17:57:52,17:58:01,9248,55
495,f11,control,unrelated,,,,order_SUBJ_OBJ,accept,above,"Ben hat erzählt, dass er seine Nachbarn beneidet. Warum genau, weiß ich aber nicht.","Ben hat erzählt, dass seine Nachbarn er beneidet. Warum genau, weiß ich aber nicht.",accept,*,17:58:01,17:58:06,5033,56
495,f06,control,related,,,,order_SUBJ_OBJfix,accept,below,"Ich habe gehört, dass der Trödler was an den Mann gebracht hat. Was es war, weiß ich aber nicht.","Ich habe gehört, dass was der Trödler an den Mann gebracht hat. Was es war, weiß ich aber nicht.",accept,*,17:58:14,17:58:17,3146,58
495,f29,filler,unrelated,,,,ADV_position,accept,below,"Ich habe mitbekommen, dass sich der Sprecher bei der Probe häufig geräuspert hat. Warum genau, weiß ich aber nicht.","Ich habe mitbekommen, dass sich bei der Probe der Sprecher häufig geräuspert hat. Warum genau, weiß ich aber nicht.",accept,?,17:58:17,17:58:24,6282,59
495,f16,control,unrelated,,,,order_SUBJ_OBJ,accept,above,"Uwe hat erzählt, dass er die Vorkommnisse verurteilt. Was genau vorgefallen ist, weiß ich aber nicht.","Uwe hat erzählt, dass die Vorkommnisse er verurteilt. Was genau vorgefallen ist, weiß ich aber nicht.",accept,*,17:58:32,17:58:39,7329,61
495,f31,attention,unrelated,,,,SUBJ_position,accept,above,"Isa hat versprochen, dass sie sich während der Diät täglich wiegt. Ich hoffe, dass sie ihr Wunschgewicht erreicht.","Isa hat versprochen, dass sie sich während der Diät täglich wiegt. Ich hoffe, dass ihr Wunschgewicht sie erreicht.",accept,*,17:58:39,17:58:48,8583,62
495,f04,control,related,,,,order_SUBJ_OBJfix,accept,above,"Lea hat erzählt, dass der Student was zum Verkauf angeboten hat. Was es war, weiß ich aber nicht.","Lea hat erzählt, dass was der Student zum Verkauf angeboten hat. Was es war, weiß ich aber nicht.",accept,*,17:58:48,17:58:54,5515,63
495,f23,filler,pseudo_windef,,,,ADV_position,?,below,"Weißt du vielleicht, wen Tim heute morgen verhaftet hat? Ich hoffe, es war kein Unschuldiger.","Weißt du vielleicht, wen Tim verhaftet hat heute morgen? Ich hoffe, es war kein Unschuldiger.",accept,?,17:59:02,17:59:10,8180,65
495,f14,control,unrelated,,,,order_SUBJ_OBJ,accept,above,"Max hat erzählt, dass er Schwarzweißfilme liebt. Was er daran findet, weiß ich aber nicht.","Max hat erzählt, dass Schwarzweißfilme er liebt. Was er daran findet, weiß ich aber nicht.",accept,*,17:59:10,17:59:16,5610,66
495,f15,control,unrelated,,,,order_SUBJ_OBJ,accept,above,"Pia hat erzählt, dass sie Zugverspätungen hasst. Ob sie oft betroffen ist, weiß ich aber nicht.","Pia hat erzählt, dass Zugverspätungen sie hasst. Ob sie oft betroffen ist, weiß ich aber nicht.",accept,*,17:59:21,17:59:27,6248,68
495,f33,filler,unrelated,,,,REFL_position,?,above,"Ich habe gehört, dass Uwe sich für einen Ausbildungsberuf entschieden hat. Für welchen genau, weiß ich aber nicht.","Ich habe gehört, dass sich Uwe für einen Ausbildungsberuf entschieden hat. Für welchen genau, weiß ich aber nicht.",accept,?,17:59:27,17:59:33,5318,69
495,f01,control,related,,,,order_SUBJ_OBJfix,accept,below,"Ich habe gehört, dass der Geschäftsmann was in Anspruch genommen hat. Was es war, weiß ich aber nicht.","Ich habe gehört, dass was der Geschäftsmann in Anspruch genommen hat. Was es war, weiß ich aber nicht.",accept,*,17:59:33,17:59:38,5485,70
495,f32,attention,unrelated,,,,SUBJ_position,accept,above,"Max hat versprochen, dass er sich von nun an in der Schule benimmt. Ich hoffe, dass er seine Unruhe in den Griff bekommt.","Max hat versprochen, dass er sich von nun an in der Schule benimmt. Ich hoffe, dass seine Unruhe in den Griff er bekommt.",accept,*,17:59:38,17:59:51,13161,71
494,f25,calibration,unrelated,,,,ADV_position,accept,below,"Kim hat erzählt, dass sie sich gerade unglaublich zusammenreißen musste. Warum genau, weiß ich aber nicht.","Kim hat erzählt, dass sie sich unglaublich gerade zusammenreißen musste. Warum genau, weiß ich aber nicht.",accept,?,17:51:41,17:51:54,12999,0
494,f44,calibration,unrelated,,,,PO_position,accept,below,"Ben hat erzählt, dass sein Sohn einigen Nachbarn auf die Nerven gegangen ist. Ob ihn das stört, weiß ich aber nicht.","Ben hat erzählt, dass sein Sohn auf die Nerven einigen Nachbarn gegangen ist. Ob ihn das stört, weiß ich aber nicht.",accept,*,17:51:54,17:52:05,10589,1
494,f34,calibration,unrelated,,,,PO_position,accept,above,"Ich habe gehört, dass Lea sich bei Max gemeldet hat. Warum genau, weiß ich aber nicht.","Ich habe gehört, dass Lea bei Max sich gemeldet hat. Warum genau, weiß ich aber nicht.",accept,?,17:52:05,17:52:14,9466,2
494,f18,calibration,pseudo_windef,,,,SUBJ_position,accept,below,"Weißt du vielleicht, was Tim gerade eben aus dem Fenster geschmissen hat? Ich hoffe, es war kein Blumentopf.","Weißt du vielleicht, was gerade eben aus dem Fenster geschmissen Tim hat? Ich hoffe, es war kein Blumentopf.",accept,*,17:52:14,17:52:22,7791,3
494,f36,calibration,unrelated,,,,REFL_position,accept,below,"Ich habe gehört, dass Pia sich für ihre Verhaltensweise geschämt hat. Was genau vorgefallen ist, weiß ich aber nicht.","Ich habe gehört, dass sich Pia für ihre Verhaltensweise geschämt hat. Was genau vorgefallen ist, weiß ich aber nicht.",accept,?,17:52:22,17:52:43,21238,4
494,f26,calibration,unrelated,,,,REFL_position,accept,above,"Jan hat versprochen, dass er sich beeilt. Ich hoffe, er schafft es rechtzeitig.","Jan hat versprochen, dass sich er beeilt. Ich hoffe, er schafft es rechtzeitig.",accept,*,17:52:43,17:52:51,7985,5
494,f17,attention,pseudo_windef,,,,NEG_position,accept,above,"Kannst du mir sagen, wen Uwe gefeuert hat? Ich hoffe, es war nicht Ben.","Kannst du mir sagen, wen Uwe gefeuert hat? Ich hoffe, es nicht war Ben.",accept,*,17:52:51,17:53:03,11362,6
494,f19,attention,pseudo_windef,,,,V_position,accept,above,"Weißt du vielleicht, was Isa bestellt hat? Ich hoffe, es war nichts Teures.","Weißt du vielleicht, was Isa bestellt hat? Ich hoffe, es nichts Teures war.",accept,*,17:53:17,17:53:24,7325,8
494,f31,attention,unrelated,,,,SUBJ_position,accept,below,"Isa hat versprochen, dass sie sich während der Diät täglich wiegt. Ich hoffe, dass sie ihr Wunschgewicht erreicht.","Isa hat versprochen, dass sie sich während der Diät täglich wiegt. Ich hoffe, dass ihr Wunschgewicht sie erreicht.",accept,*,17:53:35,17:53:47,12087,10
494,f33,filler,unrelated,,,,REFL_position,accept,below,"Ich habe gehört, dass Uwe sich für einen Ausbildungsberuf entschieden hat. Für welchen genau, weiß ich aber nicht.","Ich habe gehört, dass sich Uwe für einen Ausbildungsberuf entschieden hat. Für welchen genau, weiß ich aber nicht.",accept,?,17:53:59,17:54:13,13637,12
494,f20,filler,pseudo_windef,,,,PO_position,accept,above,"Kannst du mir sagen, wen Kim mit dem Fall beauftragt hat? Ich hoffe, es ist jemand mit Erfahrung.","Kannst du mir sagen, wen Kim beauftragt hat mit dem Fall? Ich hoffe, es ist jemand mit Erfahrung.",accept,?,17:54:39,17:54:48,8405,14
494,f42,attention,unrleated,,,,SUBJ_position,accept,above,"Uwe hat erzählt, dass ihn das Theaterstück auf angenehme Weise entzückt hat. Ich hoffe, dass er nun öfter mitkommt.","Uwe hat erzählt, dass ihn das Theaterstück auf angenehme Weise entzückt hat. Ich hoffe, dass nun er öfter mitkommt.",accept,*,17:54:58,17:55:10,11313,16
494,f24,attention,pseudo_windef,,,,V_position,accept,below,"Kannst du mir sagen, was Max zum Tatzeitpunkt gemacht hat? Ich hoffe, er hat ein gutes Alibi.","Kannst du mir sagen, was Max zum Tatzeitpunkt gemacht hat? Ich hoffe, er ein gutes Alibi hat.",accept,*,17:55:19,17:55:25,5678,18
494,f23,filler,pseudo_windef,,,,ADV_position,accept,above,"Weißt du vielleicht, wen Tim heute morgen verhaftet hat? Ich hoffe, es war kein Unschuldiger.","Weißt du vielleicht, wen Tim verhaftet hat heute morgen? Ich hoffe, es war kein Unschuldiger.",accept,?,17:55:38,17:55:49,10426,20
494,f30,filler,unrelated,,,,ADV_position,accept,below,"Eva hat versprochen, dass sie sich vor dem Sport immer bei geöffnetem Fenster dehnt. Ich hoffe, sie hält sich auch daran.","Eva hat versprochen, dass sie sich immer bei geöffnetem Fenster dehnt vor dem Sport. Ich hoffe, sie hält sich auch daran.",accept,?,17:56:00,17:56:08,8325,22
494,f05,control,related,,,,order_SUBJ_OBJfix,accept,above,"Ich habe gehört, dass der Politiker was unter Verschluss gehalten hat. Was es war, weiß ich aber nicht.","Ich habe gehört, dass was der Politiker unter Verschluss gehalten hat. Was es war, weiß ich aber nicht.",accept,*,17:56:20,17:56:27,6871,24
494,f45,attention,unrelated,,,,SUBJ_position,accept,below,"Kai hat erzählt, dass der neue Mitarbeiter ihn anwidert. Wie lange er das noch aushält, weiß ich aber nicht.","Kai hat erzählt, dass der neue Mitarbeiter ihn anwidert. Wie lange das noch aushält er, weiß ich aber nicht.",accept,*,17:56:27,17:56:34,6565,25
494,f13,control,unrelated,,,,order_SUBJ_OBJ,accept,below,"Isa hat erzählt, dass sie die Vorbehalte missbilligt. Was genau vorgefallen ist, weiß ich aber nicht.","Isa hat erzählt, dass die Vorbehalte sie missbilligt. Was genau vorgefallen ist, weiß ich aber nicht.",accept,*,17:56:50,17:56:57,7186,27
494,f43,filler,unrelated,,,,ADV_position,accept,below,"Tim hat erzählt, dass ihn eine Meldung zutiefst schockiert hat. Welche genau, weiß ich aber nicht.","Tim hat erzählt, dass ihn zutiefst eine Meldung schockiert hat. Welche genau, weiß ich aber nicht.",accept,?,17:56:57,17:57:04,6659,28
494,f41,filler,unrelated,,,,PO_position,accept,above,"Tim hat erzählt, dass er Uwe mit seiner unkonventionellen Art beeindruckt hat. Was genau passiert ist, weiß ich aber nicht.","Tim hat erzählt, dass er mit seiner unkonventionellen Art Uwe beeindruckt hat. Was genau passiert ist, weiß ich aber nicht.",accept,?,17:57:20,17:57:27,7513,30
494,f21,attention,pseudo_windef,,,,V_position,accept,below,"Kannst du mir sagen, wen Kai am Samstag in die Oper begleitet hat? Ich hoffe, dass es eine nette Dame war.","Kannst du mir sagen, wen Kai am Samstag in die Oper begleitet hat? Ich hoffe, dass eine nette Dame es war.",accept,*,17:57:37,17:57:45,8156,32
494,f16,control,unrelated,,,,order_SUBJ_OBJ,accept,above,"Uwe hat erzählt, dass er die Vorkommnisse verurteilt. Was genau vorgefallen ist, weiß ich aber nicht.","Uwe hat erzählt, dass die Vorkommnisse er verurteilt. Was genau vorgefallen ist, weiß ich aber nicht.",accept,*,17:57:45,17:57:52,7345,33
494,f46,filler,unrelated,,,,SUBJ_position,accept,above,"Ich habe mitbekommen, dass der Beschluss die Bürger aufgewühlt hat. Ich hoffe, dass sich die Gemüter schnell wieder beruhigen.","Ich habe mitbekommen, dass die Bürger der Beschluss aufgewühlt hat. Ich hoffe, dass sich die Gemüter schnell wieder beruhigen.",accept,?,17:58:05,17:58:16,11325,35
494,f06,control,related,,,,order_SUBJ_OBJfix,accept,below,"Ich habe gehört, dass der Trödler was an den Mann gebracht hat. Was es war, weiß ich aber nicht.","Ich habe gehört, dass was der Trödler an den Mann gebracht hat. Was es war, weiß ich aber nicht.",accept,*,17:58:28,17:58:38,10681,37
494,f37,filler,pseudo_COM,,,,REFL_position,accept,above,"Ich habe mitbekommen, dass Tim sich bei angelehnter Tür mit einem Kommilitonen ausgetauscht hat. Worüber genau, weiß ich aber nicht.","Ich habe mitbekommen, dass Tim bei angelehnter Tür mit einem Kommilitonen ausgetauscht sich hat. Worüber genau, weiß ich aber nicht.",accept,*,17:58:38,17:58:50,11507,38
494,f07,control,related,,,,order_SUBJ_OBJfix,accept,below,"Isa hat erzählt, dass der Ermittler was auf den Kopf gestellt hat. Was es war, weiß ich aber nicht.","Isa hat erzählt, dass was der Ermittler auf den Kopf gestellt hat. Was es war, weiß ich aber nicht.",accept,*,17:58:50,17:58:55,5246,39
494,f11,control,unrelated,,,,order_SUBJ_OBJ,accept,above,"Ben hat erzählt, dass er seine Nachbarn beneidet. Warum genau, weiß ich aber nicht.","Ben hat erzählt, dass seine Nachbarn er beneidet. Warum genau, weiß ich aber nicht.",accept,*,17:59:09,17:59:16,7752,41
494,f28,filler,unrelated,,,,REFL_position,accept,below,"Eva hat erzählt, dass sie sich in der Mittagspause ganz plötzlich übergeben musste. Warum, weiß sie aber auch nicht.","Eva hat erzählt, dass sie in der Mittagspause ganz plötzlich übergeben musste sich. Warum, weiß sie aber auch nicht.",accept,*,17:59:16,17:59:22,5813,42
494,f04,control,related,,,,order_SUBJ_OBJfix,accept,above,"Lea hat erzählt, dass der Student was zum Verkauf angeboten hat. Was es war, weiß ich aber nicht.","Lea hat erzählt, dass was der Student zum Verkauf angeboten hat. Was es war, weiß ich aber nicht.",accept,*,17:59:22,17:59:29,6510,43
494,f03,control,related,,,,order_SUBJ_OBJfix,accept,below,"Max hat erzählt, dass der Richter was zur Kenntnis genommen hat. Was es war, weiß ich aber nicht.","Max hat erzählt, dass was der Richter zur Kenntnis genommen hat. Was es war, weiß ich aber nicht.",accept,*,17:59:48,17:59:53,5571,45
494,f47,filler,unrelated,,,,V_position,accept,above,"Ich habe mitbekommen, dass der Problemschüler die Lehrer erstaunt hat. Ich hoffe, dass er doch noch versetzt wird.","Ich habe mitbekommen, dass der Problemschüler erstaunt die Lehrer hat. Ich hoffe, dass er doch noch versetzt wird.",accept,*,17:59:53,18:00:01,7268,46
494,f01,control,related,,,,order_SUBJ_OBJfix,accept,below,"Ich habe gehört, dass der Geschäftsmann was in Anspruch genommen hat. Was es war, weiß ich aber nicht.","Ich habe gehört, dass was der Geschäftsmann in Anspruch genommen hat. Was es war, weiß ich aber nicht.",accept,*,18:00:01,18:00:07,5837,47
494,f38,filler,unrelated,,,,PO_position,accept,above,"Ich habe mitbekommen, dass Kai sich bei der Stadt beworben hat. Ob er gute Chancen hat, weiß ich aber nicht.","Ich habe mitbekommen, dass Kai bei der Stadt sich beworben hat. Ob er gute Chancen hat, weiß ich aber nicht.",accept,?,18:00:19,18:00:26,6455,49
494,f02,control,related,,,,order_SUBJ_OBJfix,accept,above,"Pia hat erzählt, dass der Abteilungsleiter was in Aussicht gestellt hat. Was es war, weiß ich aber nicht.","Pia hat erzählt, dass was der Abteilungsleiter in Aussicht gestellt hat. Was es war, weiß ich aber nicht.",accept,*,18:00:35,18:00:43,8175,51
494,f35,attention,pseudo_COM,,,,NEG_position,accept,above,"Ben hat erzählt, dass er sich auf heftige Weise mit Pia angelegt hat. Warum genau, weiß ich aber nicht.","Ben hat erzählt, dass er sich auf heftige Weise mit Pia angelegt hat. Warum genau, weiß ich nicht aber.",accept,*,18:00:43,18:00:57,14688,52
494,f09,control,unrelated,,,,order_SUBJ_OBJ,accept,below,"Lea hat erzählt, dass sie die Speisen genossen hat. Ob das stimmt, weiß ich aber nicht.","Lea hat erzählt, dass die Speisen sie genossen hat. Ob das stimmt, weiß ich aber nicht.",accept,*,18:01:10,18:01:16,5411,54
