workerId,ITEM_ID,ITEM_FUNCTION,ITEM_SUBGROUP,TYPE,OBJform,P,comment,ANSWER,ANSWER_POSITION,OPTION_0_ITEM,OPTION_1_ITEM,OPTION_0_KEY_CONDITION,OPTION_1_KEY_CONDITION,date_time_begin,date_time_end,rt,trial_index
505,t17,test,,COM(O),wh,mit(MOD),test,OBJ>PP,above,"Tim hat erzählt, dass eine Haushälterin zusammen mit einem Handtuch was gewaschen hat. Was es war, weiß ich aber nicht.","Tim hat erzählt, dass eine Haushälterin was zusammen mit einem Handtuch gewaschen hat. Was es war, weiß ich aber nicht.",PP>OBJ,OBJ>PP,18:17:25,18:17:36,10865,7
505,t04,test,,INSTR,wh,mittels,test,OBJ>PP,below,"Ich habe gehört, dass ein Wissenschaftler mittels eines Mikroskops was untersucht hat. Was es war, weiß ich aber nicht.","Ich habe gehört, dass ein Wissenschaftler was mittels eines Mikroskops untersucht hat. Was es war, weiß ich aber nicht.",PP>OBJ,OBJ>PP,18:17:44,18:17:51,7374,9
505,t13,test,,COM(O),wh,mit(MOD),test,PP>OBJ,below,"Lea hat erzählt, dass ein Kleinkrimineller zusammen mit einer Stichwaffe was vergraben hat. Was es war, weiß ich aber nicht.","Lea hat erzählt, dass ein Kleinkrimineller was zusammen mit einer Stichwaffe vergraben hat. Was es war, weiß ich aber nicht.",PP>OBJ,OBJ>PP,18:18:03,18:18:12,8639,11
505,t03,test,,INSTR,wh,über,test,PP>OBJ,above,"Max hat erzählt, dass ein Pfleger über eine Pipette was verabreicht hat. Was es war, weiß ich aber nicht.","Max hat erzählt, dass ein Pfleger was über eine Pipette verabreicht hat. Was es war, weiß ich aber nicht.",PP>OBJ,OBJ>PP,18:18:21,18:18:36,14389,13
505,t09,test,,INSTR,NP,über,test,OBJ>PP,below,"Ich habe gehört, dass ein Schüler über eine Tastatur ein Notebook bedient hat. Was er genau gemacht hat, weiß ich aber nicht.","Ich habe gehört, dass ein Schüler ein Notebook über eine Tastatur bedient hat. Was er genau gemacht hat, weiß ich aber nicht.",PP>OBJ,OBJ>PP,18:18:45,18:18:54,9272,15
505,t19,test,,COM(O),NP,mit(MOD),test,PP>OBJ,below,"Ich habe gehört, dass eine Küchenhilfe zusammen mit einem Schnitzel einen Krapfen angebraten hat. Warum sie das getan hat, weiß ich aber nicht.","Ich habe gehört, dass eine Küchenhilfe einen Krapfen zusammen mit einem Schnitzel angebraten hat. Warum sie das getan hat, weiß ich aber nicht.",PP>OBJ,OBJ>PP,18:19:03,18:19:12,8809,17
505,t12,test,,INSTR,NP,mittels,test,OBJ>PP,below,"Jan hat erzählt, dass ein Truppenführer mittels eines Mobiltelefons einen Befehl übermittelt hat. Was für einen, weiß ich aber nicht.","Jan hat erzählt, dass ein Truppenführer einen Befehl mittels eines Mobiltelefons übermittelt hat. Was für einen, weiß ich aber nicht.",PP>OBJ,OBJ>PP,18:19:20,18:19:29,9552,19
505,t14,test,,COM(O),wh,mit(MOD),test,PP>OBJ,below,"Ich habe gehört, dass eine Schuldirektorin zusammen mit einer Einladung was verschickt hat. Was es war, weiß ich aber nicht.","Ich habe gehört, dass eine Schuldirektorin was zusammen mit einer Einladung verschickt hat. Was es war, weiß ich aber nicht.",PP>OBJ,OBJ>PP,18:19:43,18:19:49,6029,21
505,t10,test,,INSTR,NP,mittels,test,OBJ>PP,below,"Eva hat erzählt, dass ein Mediziner mittels einer Spritze eine Substanz injiziert hat. Was er genau gespritzt hat, weiß ich aber nicht.","Eva hat erzählt, dass ein Mediziner eine Substanz mittels einer Spritze injiziert hat. Was er genau gespritzt hat, weiß ich aber nicht.",PP>OBJ,OBJ>PP,18:20:08,18:20:20,11315,23
505,t23,test,,COM(O),NP,mit(MOD),test,OBJ>PP,below,"Eva hat erzählt, dass ein Kellner zusammen mit einer Süßspeise ein Heißgetränk serviert hat. Was für eins, weiß ich aber nicht.","Eva hat erzählt, dass ein Kellner ein Heißgetränk zusammen mit einer Süßspeise serviert hat. Was für eins, weiß ich aber nicht.",PP>OBJ,OBJ>PP,18:20:29,18:20:40,11035,25
505,t18,test,,COM(O),wh,mit(MOD),test,PP>OBJ,above,"Ich habe gehört, dass ein Kurator zusammen mit einem Preisgeld was verliehen hat. Was es war, weiß ich aber nicht.","Ich habe gehört, dass ein Kurator was zusammen mit einem Preisgeld verliehen hat. Was es war, weiß ich aber nicht.",PP>OBJ,OBJ>PP,18:21:18,18:21:28,9872,28
505,t11,test,,INSTR,NP,mittels,test,PP>OBJ,above,"Ich habe gehört, dass ein Fußballer mittels eines Attests eine Verletzung nachgewiesen hat. Was er genau hatte, weiß ich aber nicht.","Ich habe gehört, dass ein Fußballer eine Verletzung mittels eines Attests nachgewiesen hat. Was er genau hatte, weiß ich aber nicht.",PP>OBJ,OBJ>PP,18:21:38,18:21:53,14597,30
505,t05,test,,INSTR,wh,mittels,test,PP>OBJ,below,"Ich habe gehört, dass ein Heimkind mittels eines Feuerzeugs was angezündet hat. Was es war, weiß ich aber nicht.","Ich habe gehört, dass ein Heimkind was mittels eines Feuerzeugs angezündet hat. Was es war, weiß ich aber nicht.",PP>OBJ,OBJ>PP,18:22:08,18:22:17,9311,32
505,t02,test,,INSTR,wh,über,test,OBJ>PP,below,"Lea hat erzählt, dass ein Veranstaltungstechniker über einen Computer was gesteuert hat. Was es war, weiß ich aber nicht.","Lea hat erzählt, dass ein Veranstaltungstechniker was über einen Computer gesteuert hat. Was es war, weiß ich aber nicht.",PP>OBJ,OBJ>PP,18:22:36,18:22:47,11157,35
505,t24,test,,COM(O),NP,mit(MOD),test,OBJ>PP,below,"Ich habe gehört, dass ein Hobbykoch zusammen mit einer Knoblauchzehe eine Chilischote püriert hat. Wofür genau, weiß ich aber nicht.","Ich habe gehört, dass ein Hobbykoch eine Chilischote zusammen mit einer Knoblauchzehe püriert hat. Wofür genau, weiß ich aber nicht.",PP>OBJ,OBJ>PP,18:22:51,18:23:01,9702,37
505,t06,test,,INSTR,wh,mittels,test,OBJ>PP,below,"Pia hat erzählt, dass ein Industriearbeiter mittels einer Turbine was angetrieben hat. Was es war, weiß ich aber nicht.","Pia hat erzählt, dass ein Industriearbeiter was mittels einer Turbine angetrieben hat. Was es war, weiß ich aber nicht.",PP>OBJ,OBJ>PP,18:23:22,18:23:27,5406,41
505,t16,test,,COM(O),wh,mit(MOD),test,PP>OBJ,above,"Jan hat erzählt, dass ein Lokaljournalist zusammen mit einem Foto was veröffentlicht hat. Was es war, weiß ich aber nicht.","Jan hat erzählt, dass ein Lokaljournalist was zusammen mit einem Foto veröffentlicht hat. Was es war, weiß ich aber nicht.",PP>OBJ,OBJ>PP,18:23:48,18:24:00,12615,44
505,t15,test,,COM(O),wh,mit(MOD),test,PP>OBJ,above,"Ich habe gehört, dass ein Abgeordneter zusammen mit einem Finanzplan was vorgelegt hat. Was es war, weiß ich aber nicht.","Ich habe gehört, dass ein Abgeordneter was zusammen mit einem Finanzplan vorgelegt hat. Was es war, weiß ich aber nicht.",PP>OBJ,OBJ>PP,18:24:06,18:24:19,13498,46
505,t20,test,,COM(O),NP,mit(MOD),test,OBJ>PP,below,"Pia hat erzählt, dass ein Tierschützer zusammen mit einem Überweisungsträger eine Broschüre versandt hat. Was für eine, weiß ich aber nicht.","Pia hat erzählt, dass ein Tierschützer eine Broschüre zusammen mit einem Überweisungsträger versandt hat. Was für eine, weiß ich aber nicht.",PP>OBJ,OBJ>PP,18:24:47,18:24:58,11322,50
505,t07,test,,INSTR,NP,über,test,PP>OBJ,below,"Ich habe gehört, dass ein Angestellter über einen Grafikeditor ein Schnittmuster erstellt hat. Was für eins es war, weiß ich aber nicht.","Ich habe gehört, dass ein Angestellter ein Schnittmuster über einen Grafikeditor erstellt hat. Was für eins es war, weiß ich aber nicht.",PP>OBJ,OBJ>PP,18:25:20,18:25:28,7758,54
505,t01,test,,INSTR,wh,über,test,OBJ>PP,above,"Ben hat erzählt, dass ein Geschäftsmann über eine Kreditkarte was abgerechnet hat. Was es war, weiß ich aber nicht.","Ben hat erzählt, dass ein Geschäftsmann was über eine Kreditkarte abgerechnet hat. Was es war, weiß ich aber nicht.",PP>OBJ,OBJ>PP,18:26:01,18:26:12,10579,58
505,t08,test,,INSTR,NP,über,test,PP>OBJ,above,"Ich habe gehört, dass ein Busfahrer über ein Mikrofon einen Haltestellenausfall angekündigt hat. Welche Busstation betroffen war, weiß ich aber nicht.","Ich habe gehört, dass ein Busfahrer einen Haltestellenausfall über ein Mikrofon angekündigt hat. Welche Busstation betroffen war, weiß ich aber nicht.",PP>OBJ,OBJ>PP,18:26:38,18:27:01,23515,61
505,t22,test,,COM(O),NP,mit(MOD),test,PP>OBJ,below,"Kai hat erzählt, dass ein Antiquitätenhändler zusammen mit einem Gemälde eine Statue verkauft hat. Was für eine, weiß ich aber nicht.","Kai hat erzählt, dass ein Antiquitätenhändler eine Statue zusammen mit einem Gemälde verkauft hat. Was für eine, weiß ich aber nicht.",PP>OBJ,OBJ>PP,18:27:17,18:27:29,12342,64
505,t21,test,,COM(O),NP,mit(MOD),test,OBJ>PP,below,"Ich habe gehört, dass ein Minister zusammen mit einer Urkunde einen Orden überreicht hat. Was für einen, weiß ich aber nicht.","Ich habe gehört, dass ein Minister einen Orden zusammen mit einer Urkunde überreicht hat. Was für einen, weiß ich aber nicht.",PP>OBJ,OBJ>PP,18:27:47,18:27:55,8125,67
502,t16,test,,COM(O),wh,mit(MOD),test,PP>OBJ,below,"Jan hat erzählt, dass ein Lokaljournalist zusammen mit einem Foto was veröffentlicht hat. Was es war, weiß ich aber nicht.","Jan hat erzählt, dass ein Lokaljournalist was zusammen mit einem Foto veröffentlicht hat. Was es war, weiß ich aber nicht.",PP>OBJ,OBJ>PP,17:56:37,17:56:49,11360,7
502,t23,test,,COM(O),NP,mit(MOD),test,OBJ>PP,above,"Eva hat erzählt, dass ein Kellner zusammen mit einer Süßspeise ein Heißgetränk serviert hat. Was für eins, weiß ich aber nicht.","Eva hat erzählt, dass ein Kellner ein Heißgetränk zusammen mit einer Süßspeise serviert hat. Was für eins, weiß ich aber nicht.",PP>OBJ,OBJ>PP,17:57:07,17:57:17,9562,9
502,t15,test,,COM(O),wh,mit(MOD),test,PP>OBJ,below,"Ich habe gehört, dass ein Abgeordneter zusammen mit einem Finanzplan was vorgelegt hat. Was es war, weiß ich aber nicht.","Ich habe gehört, dass ein Abgeordneter was zusammen mit einem Finanzplan vorgelegt hat. Was es war, weiß ich aber nicht.",PP>OBJ,OBJ>PP,17:57:22,17:57:29,7343,11
502,t09,test,,INSTR,NP,über,test,OBJ>PP,below,"Ich habe gehört, dass ein Schüler über eine Tastatur ein Notebook bedient hat. Was er genau gemacht hat, weiß ich aber nicht.","Ich habe gehört, dass ein Schüler ein Notebook über eine Tastatur bedient hat. Was er genau gemacht hat, weiß ich aber nicht.",PP>OBJ,OBJ>PP,17:57:39,17:57:51,11146,13
502,t18,test,,COM(O),wh,mit(MOD),test,PP>OBJ,above,"Ich habe gehört, dass ein Kurator zusammen mit einem Preisgeld was verliehen hat. Was es war, weiß ich aber nicht.","Ich habe gehört, dass ein Kurator was zusammen mit einem Preisgeld verliehen hat. Was es war, weiß ich aber nicht.",PP>OBJ,OBJ>PP,17:57:57,17:58:04,7196,15
502,t04,test,,INSTR,wh,mittels,test,PP>OBJ,above,"Ich habe gehört, dass ein Wissenschaftler mittels eines Mikroskops was untersucht hat. Was es war, weiß ich aber nicht.","Ich habe gehört, dass ein Wissenschaftler was mittels eines Mikroskops untersucht hat. Was es war, weiß ich aber nicht.",PP>OBJ,OBJ>PP,17:58:11,17:58:20,8419,17
502,t11,test,,INSTR,NP,mittels,test,PP>OBJ,below,"Ich habe gehört, dass ein Fußballer mittels eines Attests eine Verletzung nachgewiesen hat. Was er genau hatte, weiß ich aber nicht.","Ich habe gehört, dass ein Fußballer eine Verletzung mittels eines Attests nachgewiesen hat. Was er genau hatte, weiß ich aber nicht.",PP>OBJ,OBJ>PP,17:58:26,17:58:42,16160,19
502,t02,test,,INSTR,wh,über,test,PP>OBJ,above,"Lea hat erzählt, dass ein Veranstaltungstechniker über einen Computer was gesteuert hat. Was es war, weiß ich aber nicht.","Lea hat erzählt, dass ein Veranstaltungstechniker was über einen Computer gesteuert hat. Was es war, weiß ich aber nicht.",PP>OBJ,OBJ>PP,17:58:49,17:58:55,6589,21
502,t24,test,,COM(O),NP,mit(MOD),test,OBJ>PP,below,"Ich habe gehört, dass ein Hobbykoch zusammen mit einer Knoblauchzehe eine Chilischote püriert hat. Wofür genau, weiß ich aber nicht.","Ich habe gehört, dass ein Hobbykoch eine Chilischote zusammen mit einer Knoblauchzehe püriert hat. Wofür genau, weiß ich aber nicht.",PP>OBJ,OBJ>PP,17:59:00,17:59:09,8933,23
502,t17,test,,COM(O),wh,mit(MOD),test,PP>OBJ,above,"Tim hat erzählt, dass eine Haushälterin zusammen mit einem Handtuch was gewaschen hat. Was es war, weiß ich aber nicht.","Tim hat erzählt, dass eine Haushälterin was zusammen mit einem Handtuch gewaschen hat. Was es war, weiß ich aber nicht.",PP>OBJ,OBJ>PP,17:59:20,17:59:27,6823,26
502,t08,test,,INSTR,NP,über,test,PP>OBJ,below,"Ich habe gehört, dass ein Busfahrer über ein Mikrofon einen Haltestellenausfall angekündigt hat. Welche Busstation betroffen war, weiß ich aber nicht.","Ich habe gehört, dass ein Busfahrer einen Haltestellenausfall über ein Mikrofon angekündigt hat. Welche Busstation betroffen war, weiß ich aber nicht.",PP>OBJ,OBJ>PP,17:59:45,17:59:53,8227,30
502,t14,test,,COM(O),wh,mit(MOD),test,PP>OBJ,below,"Ich habe gehört, dass eine Schuldirektorin zusammen mit einer Einladung was verschickt hat. Was es war, weiß ich aber nicht.","Ich habe gehört, dass eine Schuldirektorin was zusammen mit einer Einladung verschickt hat. Was es war, weiß ich aber nicht.",PP>OBJ,OBJ>PP,18:00:06,18:00:14,8462,33
502,t05,test,,INSTR,wh,mittels,test,PP>OBJ,above,"Ich habe gehört, dass ein Heimkind mittels eines Feuerzeugs was angezündet hat. Was es war, weiß ich aber nicht.","Ich habe gehört, dass ein Heimkind was mittels eines Feuerzeugs angezündet hat. Was es war, weiß ich aber nicht.",PP>OBJ,OBJ>PP,18:00:32,18:00:42,9522,37
502,t07,test,,INSTR,NP,über,test,PP>OBJ,below,"Ich habe gehört, dass ein Angestellter über einen Grafikeditor ein Schnittmuster erstellt hat. Was für eins es war, weiß ich aber nicht.","Ich habe gehört, dass ein Angestellter ein Schnittmuster über einen Grafikeditor erstellt hat. Was für eins es war, weiß ich aber nicht.",PP>OBJ,OBJ>PP,18:00:55,18:01:02,6722,40
502,t06,test,,INSTR,wh,mittels,test,PP>OBJ,below,"Pia hat erzählt, dass ein Industriearbeiter mittels einer Turbine was angetrieben hat. Was es war, weiß ich aber nicht.","Pia hat erzählt, dass ein Industriearbeiter was mittels einer Turbine angetrieben hat. Was es war, weiß ich aber nicht.",PP>OBJ,OBJ>PP,18:01:13,18:01:20,7124,42
502,t21,test,,COM(O),NP,mit(MOD),test,PP>OBJ,below,"Ich habe gehört, dass ein Minister zusammen mit einer Urkunde einen Orden überreicht hat. Was für einen, weiß ich aber nicht.","Ich habe gehört, dass ein Minister einen Orden zusammen mit einer Urkunde überreicht hat. Was für einen, weiß ich aber nicht.",PP>OBJ,OBJ>PP,18:01:32,18:01:42,9992,45
502,t19,test,,COM(O),NP,mit(MOD),test,PP>OBJ,below,"Ich habe gehört, dass eine Küchenhilfe zusammen mit einem Schnitzel einen Krapfen angebraten hat. Warum sie das getan hat, weiß ich aber nicht.","Ich habe gehört, dass eine Küchenhilfe einen Krapfen zusammen mit einem Schnitzel angebraten hat. Warum sie das getan hat, weiß ich aber nicht.",PP>OBJ,OBJ>PP,18:01:55,18:02:05,10114,48
502,t13,test,,COM(O),wh,mit(MOD),test,PP>OBJ,above,"Lea hat erzählt, dass ein Kleinkrimineller zusammen mit einer Stichwaffe was vergraben hat. Was es war, weiß ich aber nicht.","Lea hat erzählt, dass ein Kleinkrimineller was zusammen mit einer Stichwaffe vergraben hat. Was es war, weiß ich aber nicht.",PP>OBJ,OBJ>PP,18:02:14,18:02:20,5494,50
502,t01,test,,INSTR,wh,über,test,PP>OBJ,below,"Ben hat erzählt, dass ein Geschäftsmann über eine Kreditkarte was abgerechnet hat. Was es war, weiß ich aber nicht.","Ben hat erzählt, dass ein Geschäftsmann was über eine Kreditkarte abgerechnet hat. Was es war, weiß ich aber nicht.",PP>OBJ,OBJ>PP,18:02:42,18:02:48,5735,53
502,t12,test,,INSTR,NP,mittels,test,PP>OBJ,below,"Jan hat erzählt, dass ein Truppenführer mittels eines Mobiltelefons einen Befehl übermittelt hat. Was für einen, weiß ich aber nicht.","Jan hat erzählt, dass ein Truppenführer einen Befehl mittels eines Mobiltelefons übermittelt hat. Was für einen, weiß ich aber nicht.",PP>OBJ,OBJ>PP,18:03:04,18:03:14,10392,57
502,t03,test,,INSTR,wh,über,test,PP>OBJ,above,"Max hat erzählt, dass ein Pfleger über eine Pipette was verabreicht hat. Was es war, weiß ich aber nicht.","Max hat erzählt, dass ein Pfleger was über eine Pipette verabreicht hat. Was es war, weiß ich aber nicht.",PP>OBJ,OBJ>PP,18:03:23,18:03:30,7691,59
502,t10,test,,INSTR,NP,mittels,test,PP>OBJ,above,"Eva hat erzählt, dass ein Mediziner mittels einer Spritze eine Substanz injiziert hat. Was er genau gespritzt hat, weiß ich aber nicht.","Eva hat erzählt, dass ein Mediziner eine Substanz mittels einer Spritze injiziert hat. Was er genau gespritzt hat, weiß ich aber nicht.",PP>OBJ,OBJ>PP,18:03:46,18:03:54,8018,62
502,t22,test,,COM(O),NP,mit(MOD),test,PP>OBJ,above,"Kai hat erzählt, dass ein Antiquitätenhändler zusammen mit einem Gemälde eine Statue verkauft hat. Was für eine, weiß ich aber nicht.","Kai hat erzählt, dass ein Antiquitätenhändler eine Statue zusammen mit einem Gemälde verkauft hat. Was für eine, weiß ich aber nicht.",PP>OBJ,OBJ>PP,18:04:06,18:04:19,12968,65
502,t20,test,,COM(O),NP,mit(MOD),test,PP>OBJ,below,"Pia hat erzählt, dass ein Tierschützer zusammen mit einem Überweisungsträger eine Broschüre versandt hat. Was für eine, weiß ich aber nicht.","Pia hat erzählt, dass ein Tierschützer eine Broschüre zusammen mit einem Überweisungsträger versandt hat. Was für eine, weiß ich aber nicht.",PP>OBJ,OBJ>PP,18:04:30,18:04:43,13135,68
499,t09,test,,INSTR,NP,über,test,OBJ>PP,above,"Ich habe gehört, dass ein Schüler über eine Tastatur ein Notebook bedient hat. Was er genau gemacht hat, weiß ich aber nicht.","Ich habe gehört, dass ein Schüler ein Notebook über eine Tastatur bedient hat. Was er genau gemacht hat, weiß ich aber nicht.",PP>OBJ,OBJ>PP,17:56:16,17:56:35,18880,7
499,t12,test,,INSTR,NP,mittels,test,OBJ>PP,above,"Jan hat erzählt, dass ein Truppenführer mittels eines Mobiltelefons einen Befehl übermittelt hat. Was für einen, weiß ich aber nicht.","Jan hat erzählt, dass ein Truppenführer einen Befehl mittels eines Mobiltelefons übermittelt hat. Was für einen, weiß ich aber nicht.",PP>OBJ,OBJ>PP,17:56:53,17:57:21,27704,9
499,t15,test,,COM(O),wh,mit(MOD),test,PP>OBJ,below,"Ich habe gehört, dass ein Abgeordneter zusammen mit einem Finanzplan was vorgelegt hat. Was es war, weiß ich aber nicht.","Ich habe gehört, dass ein Abgeordneter was zusammen mit einem Finanzplan vorgelegt hat. Was es war, weiß ich aber nicht.",PP>OBJ,OBJ>PP,17:57:32,17:57:47,15680,11
499,t17,test,,COM(O),wh,mit(MOD),test,OBJ>PP,below,"Tim hat erzählt, dass eine Haushälterin zusammen mit einem Handtuch was gewaschen hat. Was es war, weiß ich aber nicht.","Tim hat erzählt, dass eine Haushälterin was zusammen mit einem Handtuch gewaschen hat. Was es war, weiß ich aber nicht.",PP>OBJ,OBJ>PP,17:58:06,17:58:20,14285,13
499,t04,test,,INSTR,wh,mittels,test,PP>OBJ,below,"Ich habe gehört, dass ein Wissenschaftler mittels eines Mikroskops was untersucht hat. Was es war, weiß ich aber nicht.","Ich habe gehört, dass ein Wissenschaftler was mittels eines Mikroskops untersucht hat. Was es war, weiß ich aber nicht.",PP>OBJ,OBJ>PP,17:58:46,17:59:03,16897,15
499,t22,test,,COM(O),NP,mit(MOD),test,OBJ>PP,above,"Kai hat erzählt, dass ein Antiquitätenhändler zusammen mit einem Gemälde eine Statue verkauft hat. Was für eine, weiß ich aber nicht.","Kai hat erzählt, dass ein Antiquitätenhändler eine Statue zusammen mit einem Gemälde verkauft hat. Was für eine, weiß ich aber nicht.",PP>OBJ,OBJ>PP,17:59:20,17:59:35,15001,17
499,t18,test,,COM(O),wh,mit(MOD),test,PP>OBJ,above,"Ich habe gehört, dass ein Kurator zusammen mit einem Preisgeld was verliehen hat. Was es war, weiß ich aber nicht.","Ich habe gehört, dass ein Kurator was zusammen mit einem Preisgeld verliehen hat. Was es war, weiß ich aber nicht.",PP>OBJ,OBJ>PP,17:59:56,18:00:18,21588,19
499,t11,test,,INSTR,NP,mittels,test,OBJ>PP,below,"Ich habe gehört, dass ein Fußballer mittels eines Attests eine Verletzung nachgewiesen hat. Was er genau hatte, weiß ich aber nicht.","Ich habe gehört, dass ein Fußballer eine Verletzung mittels eines Attests nachgewiesen hat. Was er genau hatte, weiß ich aber nicht.",PP>OBJ,OBJ>PP,18:00:27,18:00:48,20858,21
499,t01,test,,INSTR,wh,über,test,PP>OBJ,below,"Ben hat erzählt, dass ein Geschäftsmann über eine Kreditkarte was abgerechnet hat. Was es war, weiß ich aber nicht.","Ben hat erzählt, dass ein Geschäftsmann was über eine Kreditkarte abgerechnet hat. Was es war, weiß ich aber nicht.",PP>OBJ,OBJ>PP,18:00:56,18:01:12,16923,23
499,t23,test,,COM(O),NP,mit(MOD),test,OBJ>PP,above,"Eva hat erzählt, dass ein Kellner zusammen mit einer Süßspeise ein Heißgetränk serviert hat. Was für eins, weiß ich aber nicht.","Eva hat erzählt, dass ein Kellner ein Heißgetränk zusammen mit einer Süßspeise serviert hat. Was für eins, weiß ich aber nicht.",PP>OBJ,OBJ>PP,18:01:30,18:01:54,24079,26
499,t05,test,,INSTR,wh,mittels,test,PP>OBJ,above,"Ich habe gehört, dass ein Heimkind mittels eines Feuerzeugs was angezündet hat. Was es war, weiß ich aber nicht.","Ich habe gehört, dass ein Heimkind was mittels eines Feuerzeugs angezündet hat. Was es war, weiß ich aber nicht.",PP>OBJ,OBJ>PP,18:02:22,18:02:32,10293,29
499,t14,test,,COM(O),wh,mit(MOD),test,OBJ>PP,above,"Ich habe gehört, dass eine Schuldirektorin zusammen mit einer Einladung was verschickt hat. Was es war, weiß ich aber nicht.","Ich habe gehört, dass eine Schuldirektorin was zusammen mit einer Einladung verschickt hat. Was es war, weiß ich aber nicht.",PP>OBJ,OBJ>PP,18:03:03,18:03:28,25588,33
499,t20,test,,COM(O),NP,mit(MOD),test,OBJ>PP,above,"Pia hat erzählt, dass ein Tierschützer zusammen mit einem Überweisungsträger eine Broschüre versandt hat. Was für eine, weiß ich aber nicht.","Pia hat erzählt, dass ein Tierschützer eine Broschüre zusammen mit einem Überweisungsträger versandt hat. Was für eine, weiß ich aber nicht.",PP>OBJ,OBJ>PP,18:03:59,18:04:12,13098,36
499,t10,test,,INSTR,NP,mittels,test,OBJ>PP,below,"Eva hat erzählt, dass ein Mediziner mittels einer Spritze eine Substanz injiziert hat. Was er genau gespritzt hat, weiß ich aber nicht.","Eva hat erzählt, dass ein Mediziner eine Substanz mittels einer Spritze injiziert hat. Was er genau gespritzt hat, weiß ich aber nicht.",PP>OBJ,OBJ>PP,18:04:32,18:04:45,12984,38
499,t16,test,,COM(O),wh,mit(MOD),test,OBJ>PP,above,"Jan hat erzählt, dass ein Lokaljournalist zusammen mit einem Foto was veröffentlicht hat. Was es war, weiß ich aber nicht.","Jan hat erzählt, dass ein Lokaljournalist was zusammen mit einem Foto veröffentlicht hat. Was es war, weiß ich aber nicht.",PP>OBJ,OBJ>PP,18:05:03,18:05:15,11992,41
499,t03,test,,INSTR,wh,über,test,OBJ>PP,below,"Max hat erzählt, dass ein Pfleger über eine Pipette was verabreicht hat. Was es war, weiß ich aber nicht.","Max hat erzählt, dass ein Pfleger was über eine Pipette verabreicht hat. Was es war, weiß ich aber nicht.",PP>OBJ,OBJ>PP,18:05:43,18:05:53,10059,44
499,t13,test,,COM(O),wh,mit(MOD),test,OBJ>PP,above,"Lea hat erzählt, dass ein Kleinkrimineller zusammen mit einer Stichwaffe was vergraben hat. Was es war, weiß ich aber nicht.","Lea hat erzählt, dass ein Kleinkrimineller was zusammen mit einer Stichwaffe vergraben hat. Was es war, weiß ich aber nicht.",PP>OBJ,OBJ>PP,18:06:05,18:06:16,10760,46
499,t21,test,,COM(O),NP,mit(MOD),test,OBJ>PP,above,"Ich habe gehört, dass ein Minister zusammen mit einer Urkunde einen Orden überreicht hat. Was für einen, weiß ich aber nicht.","Ich habe gehört, dass ein Minister einen Orden zusammen mit einer Urkunde überreicht hat. Was für einen, weiß ich aber nicht.",PP>OBJ,OBJ>PP,18:06:42,18:07:05,23946,50
499,t07,test,,INSTR,NP,über,test,OBJ>PP,above,"Ich habe gehört, dass ein Angestellter über einen Grafikeditor ein Schnittmuster erstellt hat. Was für eins es war, weiß ich aber nicht.","Ich habe gehört, dass ein Angestellter ein Schnittmuster über einen Grafikeditor erstellt hat. Was für eins es war, weiß ich aber nicht.",PP>OBJ,OBJ>PP,18:07:32,18:07:47,15316,52
499,t02,test,,INSTR,wh,über,test,OBJ>PP,above,"Lea hat erzählt, dass ein Veranstaltungstechniker über einen Computer was gesteuert hat. Was es war, weiß ich aber nicht.","Lea hat erzählt, dass ein Veranstaltungstechniker was über einen Computer gesteuert hat. Was es war, weiß ich aber nicht.",PP>OBJ,OBJ>PP,18:07:59,18:08:10,10688,55
499,t08,test,,INSTR,NP,über,test,OBJ>PP,below,"Ich habe gehört, dass ein Busfahrer über ein Mikrofon einen Haltestellenausfall angekündigt hat. Welche Busstation betroffen war, weiß ich aber nicht.","Ich habe gehört, dass ein Busfahrer einen Haltestellenausfall über ein Mikrofon angekündigt hat. Welche Busstation betroffen war, weiß ich aber nicht.",PP>OBJ,OBJ>PP,18:08:21,18:08:41,20741,57
499,t24,test,,COM(O),NP,mit(MOD),test,OBJ>PP,above,"Ich habe gehört, dass ein Hobbykoch zusammen mit einer Knoblauchzehe eine Chilischote püriert hat. Wofür genau, weiß ich aber nicht.","Ich habe gehört, dass ein Hobbykoch eine Chilischote zusammen mit einer Knoblauchzehe püriert hat. Wofür genau, weiß ich aber nicht.",PP>OBJ,OBJ>PP,18:09:15,18:09:26,10966,61
499,t06,test,,INSTR,wh,mittels,test,OBJ>PP,below,"Pia hat erzählt, dass ein Industriearbeiter mittels einer Turbine was angetrieben hat. Was es war, weiß ich aber nicht.","Pia hat erzählt, dass ein Industriearbeiter was mittels einer Turbine angetrieben hat. Was es war, weiß ich aber nicht.",PP>OBJ,OBJ>PP,18:09:43,18:09:51,7403,65
499,t19,test,,COM(O),NP,mit(MOD),test,OBJ>PP,below,"Ich habe gehört, dass eine Küchenhilfe zusammen mit einem Schnitzel einen Krapfen angebraten hat. Warum sie das getan hat, weiß ich aber nicht.","Ich habe gehört, dass eine Küchenhilfe einen Krapfen zusammen mit einem Schnitzel angebraten hat. Warum sie das getan hat, weiß ich aber nicht.",PP>OBJ,OBJ>PP,18:10:04,18:10:14,10317,68
497,t11,test,,INSTR,NP,mittels,test,OBJ>PP,below,"Ich habe gehört, dass ein Fußballer mittels eines Attests eine Verletzung nachgewiesen hat. Was er genau hatte, weiß ich aber nicht.","Ich habe gehört, dass ein Fußballer eine Verletzung mittels eines Attests nachgewiesen hat. Was er genau hatte, weiß ich aber nicht.",PP>OBJ,OBJ>PP,17:54:50,17:55:06,15856,7
497,t20,test,,COM(O),NP,mit(MOD),test,PP>OBJ,above,"Pia hat erzählt, dass ein Tierschützer zusammen mit einem Überweisungsträger eine Broschüre versandt hat. Was für eine, weiß ich aber nicht.","Pia hat erzählt, dass ein Tierschützer eine Broschüre zusammen mit einem Überweisungsträger versandt hat. Was für eine, weiß ich aber nicht.",PP>OBJ,OBJ>PP,17:55:15,17:55:23,8073,9
497,t02,test,,INSTR,wh,über,test,OBJ>PP,above,"Lea hat erzählt, dass ein Veranstaltungstechniker über einen Computer was gesteuert hat. Was es war, weiß ich aber nicht.","Lea hat erzählt, dass ein Veranstaltungstechniker was über einen Computer gesteuert hat. Was es war, weiß ich aber nicht.",PP>OBJ,OBJ>PP,17:55:28,17:55:34,6676,11
497,t12,test,,INSTR,NP,mittels,test,OBJ>PP,above,"Jan hat erzählt, dass ein Truppenführer mittels eines Mobiltelefons einen Befehl übermittelt hat. Was für einen, weiß ich aber nicht.","Jan hat erzählt, dass ein Truppenführer einen Befehl mittels eines Mobiltelefons übermittelt hat. Was für einen, weiß ich aber nicht.",PP>OBJ,OBJ>PP,17:55:53,17:56:01,8217,13
497,t23,test,,COM(O),NP,mit(MOD),test,OBJ>PP,above,"Eva hat erzählt, dass ein Kellner zusammen mit einer Süßspeise ein Heißgetränk serviert hat. Was für eins, weiß ich aber nicht.","Eva hat erzählt, dass ein Kellner ein Heißgetränk zusammen mit einer Süßspeise serviert hat. Was für eins, weiß ich aber nicht.",PP>OBJ,OBJ>PP,17:56:06,17:56:14,7396,15
497,t18,test,,COM(O),wh,mit(MOD),test,OBJ>PP,below,"Ich habe gehört, dass ein Kurator zusammen mit einem Preisgeld was verliehen hat. Was es war, weiß ich aber nicht.","Ich habe gehört, dass ein Kurator was zusammen mit einem Preisgeld verliehen hat. Was es war, weiß ich aber nicht.",PP>OBJ,OBJ>PP,17:56:31,17:56:37,6529,17
497,t24,test,,COM(O),NP,mit(MOD),test,OBJ>PP,below,"Ich habe gehört, dass ein Hobbykoch zusammen mit einer Knoblauchzehe eine Chilischote püriert hat. Wofür genau, weiß ich aber nicht.","Ich habe gehört, dass ein Hobbykoch eine Chilischote zusammen mit einer Knoblauchzehe püriert hat. Wofür genau, weiß ich aber nicht.",PP>OBJ,OBJ>PP,17:56:46,17:56:59,12391,19
497,t14,test,,COM(O),wh,mit(MOD),test,OBJ>PP,below,"Ich habe gehört, dass eine Schuldirektorin zusammen mit einer Einladung was verschickt hat. Was es war, weiß ich aber nicht.","Ich habe gehört, dass eine Schuldirektorin was zusammen mit einer Einladung verschickt hat. Was es war, weiß ich aber nicht.",PP>OBJ,OBJ>PP,17:57:11,17:57:17,6207,21
497,t13,test,,COM(O),wh,mit(MOD),test,OBJ>PP,above,"Lea hat erzählt, dass ein Kleinkrimineller zusammen mit einer Stichwaffe was vergraben hat. Was es war, weiß ich aber nicht.","Lea hat erzählt, dass ein Kleinkrimineller was zusammen mit einer Stichwaffe vergraben hat. Was es war, weiß ich aber nicht.",PP>OBJ,OBJ>PP,17:57:37,17:57:45,8319,23
497,t09,test,,INSTR,NP,über,test,PP>OBJ,below,"Ich habe gehört, dass ein Schüler über eine Tastatur ein Notebook bedient hat. Was er genau gemacht hat, weiß ich aber nicht.","Ich habe gehört, dass ein Schüler ein Notebook über eine Tastatur bedient hat. Was er genau gemacht hat, weiß ich aber nicht.",PP>OBJ,OBJ>PP,17:57:57,17:58:06,9603,26
497,t16,test,,COM(O),wh,mit(MOD),test,PP>OBJ,above,"Jan hat erzählt, dass ein Lokaljournalist zusammen mit einem Foto was veröffentlicht hat. Was es war, weiß ich aber nicht.","Jan hat erzählt, dass ein Lokaljournalist was zusammen mit einem Foto veröffentlicht hat. Was es war, weiß ich aber nicht.",PP>OBJ,OBJ>PP,17:58:18,17:58:27,9194,29
497,t03,test,,INSTR,wh,über,test,PP>OBJ,below,"Max hat erzählt, dass ein Pfleger über eine Pipette was verabreicht hat. Was es war, weiß ich aber nicht.","Max hat erzählt, dass ein Pfleger was über eine Pipette verabreicht hat. Was es war, weiß ich aber nicht.",PP>OBJ,OBJ>PP,17:58:47,17:58:54,6934,33
497,t17,test,,COM(O),wh,mit(MOD),test,OBJ>PP,above,"Tim hat erzählt, dass eine Haushälterin zusammen mit einem Handtuch was gewaschen hat. Was es war, weiß ich aber nicht.","Tim hat erzählt, dass eine Haushälterin was zusammen mit einem Handtuch gewaschen hat. Was es war, weiß ich aber nicht.",PP>OBJ,OBJ>PP,17:59:04,17:59:15,10302,36
497,t21,test,,COM(O),NP,mit(MOD),test,OBJ>PP,below,"Ich habe gehört, dass ein Minister zusammen mit einer Urkunde einen Orden überreicht hat. Was für einen, weiß ich aber nicht.","Ich habe gehört, dass ein Minister einen Orden zusammen mit einer Urkunde überreicht hat. Was für einen, weiß ich aber nicht.",PP>OBJ,OBJ>PP,17:59:36,17:59:45,8575,39
497,t22,test,,COM(O),NP,mit(MOD),test,PP>OBJ,below,"Kai hat erzählt, dass ein Antiquitätenhändler zusammen mit einem Gemälde eine Statue verkauft hat. Was für eine, weiß ich aber nicht.","Kai hat erzählt, dass ein Antiquitätenhändler eine Statue zusammen mit einem Gemälde verkauft hat. Was für eine, weiß ich aber nicht.",PP>OBJ,OBJ>PP,17:59:58,18:00:06,8496,42
497,t06,test,,INSTR,wh,mittels,test,PP>OBJ,below,"Pia hat erzählt, dass ein Industriearbeiter mittels einer Turbine was angetrieben hat. Was es war, weiß ich aber nicht.","Pia hat erzählt, dass ein Industriearbeiter was mittels einer Turbine angetrieben hat. Was es war, weiß ich aber nicht.",PP>OBJ,OBJ>PP,18:00:16,18:00:21,5311,45
497,t01,test,,INSTR,wh,über,test,PP>OBJ,above,"Ben hat erzählt, dass ein Geschäftsmann über eine Kreditkarte was abgerechnet hat. Was es war, weiß ich aber nicht.","Ben hat erzählt, dass ein Geschäftsmann was über eine Kreditkarte abgerechnet hat. Was es war, weiß ich aber nicht.",PP>OBJ,OBJ>PP,18:00:41,18:00:47,6385,49
497,t19,test,,COM(O),NP,mit(MOD),test,OBJ>PP,below,"Ich habe gehört, dass eine Küchenhilfe zusammen mit einem Schnitzel einen Krapfen angebraten hat. Warum sie das getan hat, weiß ich aber nicht.","Ich habe gehört, dass eine Küchenhilfe einen Krapfen zusammen mit einem Schnitzel angebraten hat. Warum sie das getan hat, weiß ich aber nicht.",PP>OBJ,OBJ>PP,18:00:56,18:01:05,9043,51
497,t10,test,,INSTR,NP,mittels,test,OBJ>PP,above,"Eva hat erzählt, dass ein Mediziner mittels einer Spritze eine Substanz injiziert hat. Was er genau gespritzt hat, weiß ich aber nicht.","Eva hat erzählt, dass ein Mediziner eine Substanz mittels einer Spritze injiziert hat. Was er genau gespritzt hat, weiß ich aber nicht.",PP>OBJ,OBJ>PP,18:01:12,18:01:22,9771,53
497,t08,test,,INSTR,NP,über,test,OBJ>PP,above,"Ich habe gehört, dass ein Busfahrer über ein Mikrofon einen Haltestellenausfall angekündigt hat. Welche Busstation betroffen war, weiß ich aber nicht.","Ich habe gehört, dass ein Busfahrer einen Haltestellenausfall über ein Mikrofon angekündigt hat. Welche Busstation betroffen war, weiß ich aber nicht.",PP>OBJ,OBJ>PP,18:01:28,18:01:40,12101,55
497,t07,test,,INSTR,NP,über,test,OBJ>PP,below,"Ich habe gehört, dass ein Angestellter über einen Grafikeditor ein Schnittmuster erstellt hat. Was für eins es war, weiß ich aber nicht.","Ich habe gehört, dass ein Angestellter ein Schnittmuster über einen Grafikeditor erstellt hat. Was für eins es war, weiß ich aber nicht.",PP>OBJ,OBJ>PP,18:01:48,18:01:58,9814,58
497,t04,test,,INSTR,wh,mittels,test,PP>OBJ,below,"Ich habe gehört, dass ein Wissenschaftler mittels eines Mikroskops was untersucht hat. Was es war, weiß ich aber nicht.","Ich habe gehört, dass ein Wissenschaftler was mittels eines Mikroskops untersucht hat. Was es war, weiß ich aber nicht.",PP>OBJ,OBJ>PP,18:02:14,18:02:20,5967,62
497,t15,test,,COM(O),wh,mit(MOD),test,OBJ>PP,below,"Ich habe gehört, dass ein Abgeordneter zusammen mit einem Finanzplan was vorgelegt hat. Was es war, weiß ich aber nicht.","Ich habe gehört, dass ein Abgeordneter was zusammen mit einem Finanzplan vorgelegt hat. Was es war, weiß ich aber nicht.",PP>OBJ,OBJ>PP,18:02:34,18:02:39,4968,65
497,t05,test,,INSTR,wh,mittels,test,PP>OBJ,below,"Ich habe gehört, dass ein Heimkind mittels eines Feuerzeugs was angezündet hat. Was es war, weiß ich aber nicht.","Ich habe gehört, dass ein Heimkind was mittels eines Feuerzeugs angezündet hat. Was es war, weiß ich aber nicht.",PP>OBJ,OBJ>PP,18:02:57,18:03:01,4762,68
496,t05,test,,INSTR,wh,mittels,test,PP>OBJ,below,"Ich habe gehört, dass ein Heimkind mittels eines Feuerzeugs was angezündet hat. Was es war, weiß ich aber nicht.","Ich habe gehört, dass ein Heimkind was mittels eines Feuerzeugs angezündet hat. Was es war, weiß ich aber nicht.",PP>OBJ,OBJ>PP,17:55:32,17:55:40,7715,7
496,t10,test,,INSTR,NP,mittels,test,OBJ>PP,below,"Eva hat erzählt, dass ein Mediziner mittels einer Spritze eine Substanz injiziert hat. Was er genau gespritzt hat, weiß ich aber nicht.","Eva hat erzählt, dass ein Mediziner eine Substanz mittels einer Spritze injiziert hat. Was er genau gespritzt hat, weiß ich aber nicht.",PP>OBJ,OBJ>PP,17:55:44,17:55:50,6160,9
496,t11,test,,INSTR,NP,mittels,test,OBJ>PP,below,"Ich habe gehört, dass ein Fußballer mittels eines Attests eine Verletzung nachgewiesen hat. Was er genau hatte, weiß ich aber nicht.","Ich habe gehört, dass ein Fußballer eine Verletzung mittels eines Attests nachgewiesen hat. Was er genau hatte, weiß ich aber nicht.",PP>OBJ,OBJ>PP,17:55:57,17:56:09,12330,11
496,t22,test,,COM(O),NP,mit(MOD),test,OBJ>PP,above,"Kai hat erzählt, dass ein Antiquitätenhändler zusammen mit einem Gemälde eine Statue verkauft hat. Was für eine, weiß ich aber nicht.","Kai hat erzählt, dass ein Antiquitätenhändler eine Statue zusammen mit einem Gemälde verkauft hat. Was für eine, weiß ich aber nicht.",PP>OBJ,OBJ>PP,17:56:17,17:56:24,7218,13
496,t17,test,,COM(O),wh,mit(MOD),test,OBJ>PP,above,"Tim hat erzählt, dass eine Haushälterin zusammen mit einem Handtuch was gewaschen hat. Was es war, weiß ich aber nicht.","Tim hat erzählt, dass eine Haushälterin was zusammen mit einem Handtuch gewaschen hat. Was es war, weiß ich aber nicht.",PP>OBJ,OBJ>PP,17:56:31,17:56:39,8215,15
496,t16,test,,COM(O),wh,mit(MOD),test,OBJ>PP,below,"Jan hat erzählt, dass ein Lokaljournalist zusammen mit einem Foto was veröffentlicht hat. Was es war, weiß ich aber nicht.","Jan hat erzählt, dass ein Lokaljournalist was zusammen mit einem Foto veröffentlicht hat. Was es war, weiß ich aber nicht.",PP>OBJ,OBJ>PP,17:56:50,17:56:57,7733,17
496,t24,test,,COM(O),NP,mit(MOD),test,OBJ>PP,below,"Ich habe gehört, dass ein Hobbykoch zusammen mit einer Knoblauchzehe eine Chilischote püriert hat. Wofür genau, weiß ich aber nicht.","Ich habe gehört, dass ein Hobbykoch eine Chilischote zusammen mit einer Knoblauchzehe püriert hat. Wofür genau, weiß ich aber nicht.",PP>OBJ,OBJ>PP,17:57:18,17:57:27,8680,19
496,t19,test,,COM(O),NP,mit(MOD),test,OBJ>PP,above,"Ich habe gehört, dass eine Küchenhilfe zusammen mit einem Schnitzel einen Krapfen angebraten hat. Warum sie das getan hat, weiß ich aber nicht.","Ich habe gehört, dass eine Küchenhilfe einen Krapfen zusammen mit einem Schnitzel angebraten hat. Warum sie das getan hat, weiß ich aber nicht.",PP>OBJ,OBJ>PP,17:57:32,17:57:42,10526,21
496,t07,test,,INSTR,NP,über,test,PP>OBJ,below,"Ich habe gehört, dass ein Angestellter über einen Grafikeditor ein Schnittmuster erstellt hat. Was für eins es war, weiß ich aber nicht.","Ich habe gehört, dass ein Angestellter ein Schnittmuster über einen Grafikeditor erstellt hat. Was für eins es war, weiß ich aber nicht.",PP>OBJ,OBJ>PP,17:57:50,17:57:59,9492,23
496,t15,test,,COM(O),wh,mit(MOD),test,OBJ>PP,above,"Ich habe gehört, dass ein Abgeordneter zusammen mit einem Finanzplan was vorgelegt hat. Was es war, weiß ich aber nicht.","Ich habe gehört, dass ein Abgeordneter was zusammen mit einem Finanzplan vorgelegt hat. Was es war, weiß ich aber nicht.",PP>OBJ,OBJ>PP,17:58:19,17:58:32,13105,27
496,t14,test,,COM(O),wh,mit(MOD),test,OBJ>PP,below,"Ich habe gehört, dass eine Schuldirektorin zusammen mit einer Einladung was verschickt hat. Was es war, weiß ich aber nicht.","Ich habe gehört, dass eine Schuldirektorin was zusammen mit einer Einladung verschickt hat. Was es war, weiß ich aber nicht.",PP>OBJ,OBJ>PP,17:58:48,17:58:54,6170,30
496,t20,test,,COM(O),NP,mit(MOD),test,OBJ>PP,below,"Pia hat erzählt, dass ein Tierschützer zusammen mit einem Überweisungsträger eine Broschüre versandt hat. Was für eine, weiß ich aber nicht.","Pia hat erzählt, dass ein Tierschützer eine Broschüre zusammen mit einem Überweisungsträger versandt hat. Was für eine, weiß ich aber nicht.",PP>OBJ,OBJ>PP,17:59:12,17:59:21,9298,33
496,t02,test,,INSTR,wh,über,test,PP>OBJ,below,"Lea hat erzählt, dass ein Veranstaltungstechniker über einen Computer was gesteuert hat. Was es war, weiß ich aber nicht.","Lea hat erzählt, dass ein Veranstaltungstechniker was über einen Computer gesteuert hat. Was es war, weiß ich aber nicht.",PP>OBJ,OBJ>PP,17:59:35,17:59:45,10039,36
496,t01,test,,INSTR,wh,über,test,OBJ>PP,below,"Ben hat erzählt, dass ein Geschäftsmann über eine Kreditkarte was abgerechnet hat. Was es war, weiß ich aber nicht.","Ben hat erzählt, dass ein Geschäftsmann was über eine Kreditkarte abgerechnet hat. Was es war, weiß ich aber nicht.",PP>OBJ,OBJ>PP,18:00:03,18:00:09,6133,39
496,t18,test,,COM(O),wh,mit(MOD),test,OBJ>PP,below,"Ich habe gehört, dass ein Kurator zusammen mit einem Preisgeld was verliehen hat. Was es war, weiß ich aber nicht.","Ich habe gehört, dass ein Kurator was zusammen mit einem Preisgeld verliehen hat. Was es war, weiß ich aber nicht.",PP>OBJ,OBJ>PP,18:00:22,18:00:29,7343,42
496,t03,test,,INSTR,wh,über,test,OBJ>PP,below,"Max hat erzählt, dass ein Pfleger über eine Pipette was verabreicht hat. Was es war, weiß ich aber nicht.","Max hat erzählt, dass ein Pfleger was über eine Pipette verabreicht hat. Was es war, weiß ich aber nicht.",PP>OBJ,OBJ>PP,18:00:44,18:00:49,5009,45
496,t13,test,,COM(O),wh,mit(MOD),test,OBJ>PP,below,"Lea hat erzählt, dass ein Kleinkrimineller zusammen mit einer Stichwaffe was vergraben hat. Was es war, weiß ich aber nicht.","Lea hat erzählt, dass ein Kleinkrimineller was zusammen mit einer Stichwaffe vergraben hat. Was es war, weiß ich aber nicht.",PP>OBJ,OBJ>PP,18:00:58,18:01:05,6664,48
496,t04,test,,INSTR,wh,mittels,test,OBJ>PP,above,"Ich habe gehört, dass ein Wissenschaftler mittels eines Mikroskops was untersucht hat. Was es war, weiß ich aber nicht.","Ich habe gehört, dass ein Wissenschaftler was mittels eines Mikroskops untersucht hat. Was es war, weiß ich aber nicht.",PP>OBJ,OBJ>PP,18:01:22,18:01:31,8649,51
496,t09,test,,INSTR,NP,über,test,OBJ>PP,below,"Ich habe gehört, dass ein Schüler über eine Tastatur ein Notebook bedient hat. Was er genau gemacht hat, weiß ich aber nicht.","Ich habe gehört, dass ein Schüler ein Notebook über eine Tastatur bedient hat. Was er genau gemacht hat, weiß ich aber nicht.",PP>OBJ,OBJ>PP,18:01:45,18:01:53,8079,54
496,t21,test,,COM(O),NP,mit(MOD),test,PP>OBJ,below,"Ich habe gehört, dass ein Minister zusammen mit einer Urkunde einen Orden überreicht hat. Was für einen, weiß ich aber nicht.","Ich habe gehört, dass ein Minister einen Orden zusammen mit einer Urkunde überreicht hat. Was für einen, weiß ich aber nicht.",PP>OBJ,OBJ>PP,18:02:07,18:02:14,7783,57
496,t06,test,,INSTR,wh,mittels,test,OBJ>PP,above,"Pia hat erzählt, dass ein Industriearbeiter mittels einer Turbine was angetrieben hat. Was es war, weiß ich aber nicht.","Pia hat erzählt, dass ein Industriearbeiter was mittels einer Turbine angetrieben hat. Was es war, weiß ich aber nicht.",PP>OBJ,OBJ>PP,18:02:25,18:02:33,7409,60
496,t08,test,,INSTR,NP,über,test,PP>OBJ,above,"Ich habe gehört, dass ein Busfahrer über ein Mikrofon einen Haltestellenausfall angekündigt hat. Welche Busstation betroffen war, weiß ich aber nicht.","Ich habe gehört, dass ein Busfahrer einen Haltestellenausfall über ein Mikrofon angekündigt hat. Welche Busstation betroffen war, weiß ich aber nicht.",PP>OBJ,OBJ>PP,18:02:59,18:03:12,12920,63
496,t12,test,,INSTR,NP,mittels,test,OBJ>PP,above,"Jan hat erzählt, dass ein Truppenführer mittels eines Mobiltelefons einen Befehl übermittelt hat. Was für einen, weiß ich aber nicht.","Jan hat erzählt, dass ein Truppenführer einen Befehl mittels eines Mobiltelefons übermittelt hat. Was für einen, weiß ich aber nicht.",PP>OBJ,OBJ>PP,18:03:20,18:03:28,7954,66
496,t23,test,,COM(O),NP,mit(MOD),test,OBJ>PP,below,"Eva hat erzählt, dass ein Kellner zusammen mit einer Süßspeise ein Heißgetränk serviert hat. Was für eins, weiß ich aber nicht.","Eva hat erzählt, dass ein Kellner ein Heißgetränk zusammen mit einer Süßspeise serviert hat. Was für eins, weiß ich aber nicht.",PP>OBJ,OBJ>PP,18:03:34,18:03:40,5936,68
495,t07,test,,INSTR,NP,über,test,PP>OBJ,below,"Ich habe gehört, dass ein Angestellter über einen Grafikeditor ein Schnittmuster erstellt hat. Was für eins es war, weiß ich aber nicht.","Ich habe gehört, dass ein Angestellter ein Schnittmuster über einen Grafikeditor erstellt hat. Was für eins es war, weiß ich aber nicht.",PP>OBJ,OBJ>PP,17:52:09,17:52:23,13710,7
495,t24,test,,COM(O),NP,mit(MOD),test,OBJ>PP,above,"Ich habe gehört, dass ein Hobbykoch zusammen mit einer Knoblauchzehe eine Chilischote püriert hat. Wofür genau, weiß ich aber nicht.","Ich habe gehört, dass ein Hobbykoch eine Chilischote zusammen mit einer Knoblauchzehe püriert hat. Wofür genau, weiß ich aber nicht.",PP>OBJ,OBJ>PP,17:52:29,17:52:38,8742,9
495,t13,test,,COM(O),wh,mit(MOD),test,OBJ>PP,below,"Lea hat erzählt, dass ein Kleinkrimineller zusammen mit einer Stichwaffe was vergraben hat. Was es war, weiß ich aber nicht.","Lea hat erzählt, dass ein Kleinkrimineller was zusammen mit einer Stichwaffe vergraben hat. Was es war, weiß ich aber nicht.",PP>OBJ,OBJ>PP,17:52:48,17:52:54,6264,11
495,t21,test,,COM(O),NP,mit(MOD),test,OBJ>PP,below,"Ich habe gehört, dass ein Minister zusammen mit einer Urkunde einen Orden überreicht hat. Was für einen, weiß ich aber nicht.","Ich habe gehört, dass ein Minister einen Orden zusammen mit einer Urkunde überreicht hat. Was für einen, weiß ich aber nicht.",PP>OBJ,OBJ>PP,17:52:58,17:53:05,7341,13
495,t10,test,,INSTR,NP,mittels,test,PP>OBJ,below,"Eva hat erzählt, dass ein Mediziner mittels einer Spritze eine Substanz injiziert hat. Was er genau gespritzt hat, weiß ich aber nicht.","Eva hat erzählt, dass ein Mediziner eine Substanz mittels einer Spritze injiziert hat. Was er genau gespritzt hat, weiß ich aber nicht.",PP>OBJ,OBJ>PP,17:53:09,17:53:19,9225,15
495,t15,test,,COM(O),wh,mit(MOD),test,OBJ>PP,below,"Ich habe gehört, dass ein Abgeordneter zusammen mit einem Finanzplan was vorgelegt hat. Was es war, weiß ich aber nicht.","Ich habe gehört, dass ein Abgeordneter was zusammen mit einem Finanzplan vorgelegt hat. Was es war, weiß ich aber nicht.",PP>OBJ,OBJ>PP,17:53:27,17:53:33,6509,17
495,t11,test,,INSTR,NP,mittels,test,PP>OBJ,above,"Ich habe gehört, dass ein Fußballer mittels eines Attests eine Verletzung nachgewiesen hat. Was er genau hatte, weiß ich aber nicht.","Ich habe gehört, dass ein Fußballer eine Verletzung mittels eines Attests nachgewiesen hat. Was er genau hatte, weiß ich aber nicht.",PP>OBJ,OBJ>PP,17:53:41,17:53:50,9305,19
495,t01,test,,INSTR,wh,über,test,OBJ>PP,below,"Ben hat erzählt, dass ein Geschäftsmann über eine Kreditkarte was abgerechnet hat. Was es war, weiß ich aber nicht.","Ben hat erzählt, dass ein Geschäftsmann was über eine Kreditkarte abgerechnet hat. Was es war, weiß ich aber nicht.",PP>OBJ,OBJ>PP,17:53:54,17:54:00,6028,21
495,t05,test,,INSTR,wh,mittels,test,OBJ>PP,below,"Ich habe gehört, dass ein Heimkind mittels eines Feuerzeugs was angezündet hat. Was es war, weiß ich aber nicht.","Ich habe gehört, dass ein Heimkind was mittels eines Feuerzeugs angezündet hat. Was es war, weiß ich aber nicht.",PP>OBJ,OBJ>PP,17:54:07,17:54:15,7899,23
495,t22,test,,COM(O),NP,mit(MOD),test,OBJ>PP,below,"Kai hat erzählt, dass ein Antiquitätenhändler zusammen mit einem Gemälde eine Statue verkauft hat. Was für eine, weiß ich aber nicht.","Kai hat erzählt, dass ein Antiquitätenhändler eine Statue zusammen mit einem Gemälde verkauft hat. Was für eine, weiß ich aber nicht.",PP>OBJ,OBJ>PP,17:54:25,17:54:42,17282,25
495,t18,test,,COM(O),wh,mit(MOD),test,PP>OBJ,below,"Ich habe gehört, dass ein Kurator zusammen mit einem Preisgeld was verliehen hat. Was es war, weiß ich aber nicht.","Ich habe gehört, dass ein Kurator was zusammen mit einem Preisgeld verliehen hat. Was es war, weiß ich aber nicht.",PP>OBJ,OBJ>PP,17:54:47,17:54:53,5448,27
495,t14,test,,COM(O),wh,mit(MOD),test,PP>OBJ,below,"Ich habe gehört, dass eine Schuldirektorin zusammen mit einer Einladung was verschickt hat. Was es war, weiß ich aber nicht.","Ich habe gehört, dass eine Schuldirektorin was zusammen mit einer Einladung verschickt hat. Was es war, weiß ich aber nicht.",PP>OBJ,OBJ>PP,17:55:06,17:55:13,6679,30
495,t23,test,,COM(O),NP,mit(MOD),test,OBJ>PP,above,"Eva hat erzählt, dass ein Kellner zusammen mit einer Süßspeise ein Heißgetränk serviert hat. Was für eins, weiß ich aber nicht.","Eva hat erzählt, dass ein Kellner ein Heißgetränk zusammen mit einer Süßspeise serviert hat. Was für eins, weiß ich aber nicht.",PP>OBJ,OBJ>PP,17:55:18,17:55:26,7709,32
495,t12,test,,INSTR,NP,mittels,test,PP>OBJ,above,"Jan hat erzählt, dass ein Truppenführer mittels eines Mobiltelefons einen Befehl übermittelt hat. Was für einen, weiß ich aber nicht.","Jan hat erzählt, dass ein Truppenführer einen Befehl mittels eines Mobiltelefons übermittelt hat. Was für einen, weiß ich aber nicht.",PP>OBJ,OBJ>PP,17:55:36,17:55:43,7074,34
495,t20,test,,COM(O),NP,mit(MOD),test,PP>OBJ,below,"Pia hat erzählt, dass ein Tierschützer zusammen mit einem Überweisungsträger eine Broschüre versandt hat. Was für eine, weiß ich aber nicht.","Pia hat erzählt, dass ein Tierschützer eine Broschüre zusammen mit einem Überweisungsträger versandt hat. Was für eine, weiß ich aber nicht.",PP>OBJ,OBJ>PP,17:55:55,17:56:01,6316,37
495,t04,test,,INSTR,wh,mittels,test,PP>OBJ,above,"Ich habe gehört, dass ein Wissenschaftler mittels eines Mikroskops was untersucht hat. Was es war, weiß ich aber nicht.","Ich habe gehört, dass ein Wissenschaftler was mittels eines Mikroskops untersucht hat. Was es war, weiß ich aber nicht.",PP>OBJ,OBJ>PP,17:56:18,17:56:27,9683,40
495,t17,test,,COM(O),wh,mit(MOD),test,OBJ>PP,above,"Tim hat erzählt, dass eine Haushälterin zusammen mit einem Handtuch was gewaschen hat. Was es war, weiß ich aber nicht.","Tim hat erzählt, dass eine Haushälterin was zusammen mit einem Handtuch gewaschen hat. Was es war, weiß ich aber nicht.",PP>OBJ,OBJ>PP,17:56:41,17:56:50,9103,44
495,t08,test,,INSTR,NP,über,test,OBJ>PP,above,"Ich habe gehört, dass ein Busfahrer über ein Mikrofon einen Haltestellenausfall angekündigt hat. Welche Busstation betroffen war, weiß ich aber nicht.","Ich habe gehört, dass ein Busfahrer einen Haltestellenausfall über ein Mikrofon angekündigt hat. Welche Busstation betroffen war, weiß ich aber nicht.",PP>OBJ,OBJ>PP,17:57:01,17:57:09,7754,47
495,t03,test,,INSTR,wh,über,test,OBJ>PP,below,"Max hat erzählt, dass ein Pfleger über eine Pipette was verabreicht hat. Was es war, weiß ich aber nicht.","Max hat erzählt, dass ein Pfleger was über eine Pipette verabreicht hat. Was es war, weiß ich aber nicht.",PP>OBJ,OBJ>PP,17:57:27,17:57:32,4655,51
495,t02,test,,INSTR,wh,über,test,OBJ>PP,above,"Lea hat erzählt, dass ein Veranstaltungstechniker über einen Computer was gesteuert hat. Was es war, weiß ich aber nicht.","Lea hat erzählt, dass ein Veranstaltungstechniker was über einen Computer gesteuert hat. Was es war, weiß ich aber nicht.",PP>OBJ,OBJ>PP,17:57:44,17:57:52,7939,54
495,t16,test,,COM(O),wh,mit(MOD),test,OBJ>PP,above,"Jan hat erzählt, dass ein Lokaljournalist zusammen mit einem Foto was veröffentlicht hat. Was es war, weiß ich aber nicht.","Jan hat erzählt, dass ein Lokaljournalist was zusammen mit einem Foto veröffentlicht hat. Was es war, weiß ich aber nicht.",PP>OBJ,OBJ>PP,17:58:06,17:58:14,8034,57
495,t19,test,,COM(O),NP,mit(MOD),test,OBJ>PP,above,"Ich habe gehört, dass eine Küchenhilfe zusammen mit einem Schnitzel einen Krapfen angebraten hat. Warum sie das getan hat, weiß ich aber nicht.","Ich habe gehört, dass eine Küchenhilfe einen Krapfen zusammen mit einem Schnitzel angebraten hat. Warum sie das getan hat, weiß ich aber nicht.",PP>OBJ,OBJ>PP,17:58:24,17:58:32,8546,60
495,t09,test,,INSTR,NP,über,test,PP>OBJ,above,"Ich habe gehört, dass ein Schüler über eine Tastatur ein Notebook bedient hat. Was er genau gemacht hat, weiß ich aber nicht.","Ich habe gehört, dass ein Schüler ein Notebook über eine Tastatur bedient hat. Was er genau gemacht hat, weiß ich aber nicht.",PP>OBJ,OBJ>PP,17:58:54,17:59:02,8377,64
495,t06,test,,INSTR,wh,mittels,test,OBJ>PP,below,"Pia hat erzählt, dass ein Industriearbeiter mittels einer Turbine was angetrieben hat. Was es war, weiß ich aber nicht.","Pia hat erzählt, dass ein Industriearbeiter was mittels einer Turbine angetrieben hat. Was es war, weiß ich aber nicht.",PP>OBJ,OBJ>PP,17:59:16,17:59:21,5258,67
494,t09,test,,INSTR,NP,über,test,OBJ>PP,above,"Ich habe gehört, dass ein Schüler über eine Tastatur ein Notebook bedient hat. Was er genau gemacht hat, weiß ich aber nicht.","Ich habe gehört, dass ein Schüler ein Notebook über eine Tastatur bedient hat. Was er genau gemacht hat, weiß ich aber nicht.",PP>OBJ,OBJ>PP,17:53:03,17:53:17,14159,7
494,t01,test,,INSTR,wh,über,test,OBJ>PP,below,"Ben hat erzählt, dass ein Geschäftsmann über eine Kreditkarte was abgerechnet hat. Was es war, weiß ich aber nicht.","Ben hat erzählt, dass ein Geschäftsmann was über eine Kreditkarte abgerechnet hat. Was es war, weiß ich aber nicht.",PP>OBJ,OBJ>PP,17:53:24,17:53:35,10427,9
494,t11,test,,INSTR,NP,mittels,test,PP>OBJ,above,"Ich habe gehört, dass ein Fußballer mittels eines Attests eine Verletzung nachgewiesen hat. Was er genau hatte, weiß ich aber nicht.","Ich habe gehört, dass ein Fußballer eine Verletzung mittels eines Attests nachgewiesen hat. Was er genau hatte, weiß ich aber nicht.",PP>OBJ,OBJ>PP,17:53:47,17:53:59,12344,11
494,t20,test,,COM(O),NP,mit(MOD),test,PP>OBJ,above,"Pia hat erzählt, dass ein Tierschützer zusammen mit einem Überweisungsträger eine Broschüre versandt hat. Was für eine, weiß ich aber nicht.","Pia hat erzählt, dass ein Tierschützer eine Broschüre zusammen mit einem Überweisungsträger versandt hat. Was für eine, weiß ich aber nicht.",PP>OBJ,OBJ>PP,17:54:13,17:54:39,26501,13
494,t04,test,,INSTR,wh,mittels,test,PP>OBJ,below,"Ich habe gehört, dass ein Wissenschaftler mittels eines Mikroskops was untersucht hat. Was es war, weiß ich aber nicht.","Ich habe gehört, dass ein Wissenschaftler was mittels eines Mikroskops untersucht hat. Was es war, weiß ich aber nicht.",PP>OBJ,OBJ>PP,17:54:48,17:54:58,10756,15
494,t08,test,,INSTR,NP,über,test,PP>OBJ,below,"Ich habe gehört, dass ein Busfahrer über ein Mikrofon einen Haltestellenausfall angekündigt hat. Welche Busstation betroffen war, weiß ich aber nicht.","Ich habe gehört, dass ein Busfahrer einen Haltestellenausfall über ein Mikrofon angekündigt hat. Welche Busstation betroffen war, weiß ich aber nicht.",PP>OBJ,OBJ>PP,17:55:10,17:55:19,9793,17
494,t18,test,,COM(O),wh,mit(MOD),test,PP>OBJ,below,"Ich habe gehört, dass ein Kurator zusammen mit einem Preisgeld was verliehen hat. Was es war, weiß ich aber nicht.","Ich habe gehört, dass ein Kurator was zusammen mit einem Preisgeld verliehen hat. Was es war, weiß ich aber nicht.",PP>OBJ,OBJ>PP,17:55:25,17:55:38,13127,19
494,t06,test,,INSTR,wh,mittels,test,PP>OBJ,below,"Pia hat erzählt, dass ein Industriearbeiter mittels einer Turbine was angetrieben hat. Was es war, weiß ich aber nicht.","Pia hat erzählt, dass ein Industriearbeiter was mittels einer Turbine angetrieben hat. Was es war, weiß ich aber nicht.",PP>OBJ,OBJ>PP,17:55:49,17:56:00,10827,21
494,t07,test,,INSTR,NP,über,test,PP>OBJ,below,"Ich habe gehört, dass ein Angestellter über einen Grafikeditor ein Schnittmuster erstellt hat. Was für eins es war, weiß ich aber nicht.","Ich habe gehört, dass ein Angestellter ein Schnittmuster über einen Grafikeditor erstellt hat. Was für eins es war, weiß ich aber nicht.",PP>OBJ,OBJ>PP,17:56:08,17:56:20,12499,23
494,t16,test,,COM(O),wh,mit(MOD),test,OBJ>PP,below,"Jan hat erzählt, dass ein Lokaljournalist zusammen mit einem Foto was veröffentlicht hat. Was es war, weiß ich aber nicht.","Jan hat erzählt, dass ein Lokaljournalist was zusammen mit einem Foto veröffentlicht hat. Was es war, weiß ich aber nicht.",PP>OBJ,OBJ>PP,17:56:34,17:56:50,16319,26
494,t12,test,,INSTR,NP,mittels,test,PP>OBJ,below,"Jan hat erzählt, dass ein Truppenführer mittels eines Mobiltelefons einen Befehl übermittelt hat. Was für einen, weiß ich aber nicht.","Jan hat erzählt, dass ein Truppenführer einen Befehl mittels eines Mobiltelefons übermittelt hat. Was für einen, weiß ich aber nicht.",PP>OBJ,OBJ>PP,17:57:04,17:57:20,15661,29
494,t19,test,,COM(O),NP,mit(MOD),test,OBJ>PP,below,"Ich habe gehört, dass eine Küchenhilfe zusammen mit einem Schnitzel einen Krapfen angebraten hat. Warum sie das getan hat, weiß ich aber nicht.","Ich habe gehört, dass eine Küchenhilfe einen Krapfen zusammen mit einem Schnitzel angebraten hat. Warum sie das getan hat, weiß ich aber nicht.",PP>OBJ,OBJ>PP,17:57:27,17:57:37,9586,31
494,t21,test,,COM(O),NP,mit(MOD),test,OBJ>PP,above,"Ich habe gehört, dass ein Minister zusammen mit einer Urkunde einen Orden überreicht hat. Was für einen, weiß ich aber nicht.","Ich habe gehört, dass ein Minister einen Orden zusammen mit einer Urkunde überreicht hat. Was für einen, weiß ich aber nicht.",PP>OBJ,OBJ>PP,17:57:52,17:58:05,12284,34
494,t13,test,,COM(O),wh,mit(MOD),test,OBJ>PP,above,"Lea hat erzählt, dass ein Kleinkrimineller zusammen mit einer Stichwaffe was vergraben hat. Was es war, weiß ich aber nicht.","Lea hat erzählt, dass ein Kleinkrimineller was zusammen mit einer Stichwaffe vergraben hat. Was es war, weiß ich aber nicht.",PP>OBJ,OBJ>PP,17:58:16,17:58:28,11801,36
494,t23,test,,COM(O),NP,mit(MOD),test,OBJ>PP,above,"Eva hat erzählt, dass ein Kellner zusammen mit einer Süßspeise ein Heißgetränk serviert hat. Was für eins, weiß ich aber nicht.","Eva hat erzählt, dass ein Kellner ein Heißgetränk zusammen mit einer Süßspeise serviert hat. Was für eins, weiß ich aber nicht.",PP>OBJ,OBJ>PP,17:58:55,17:59:09,13453,40
494,t14,test,,COM(O),wh,mit(MOD),test,OBJ>PP,above,"Ich habe gehört, dass eine Schuldirektorin zusammen mit einer Einladung was verschickt hat. Was es war, weiß ich aber nicht.","Ich habe gehört, dass eine Schuldirektorin was zusammen mit einer Einladung verschickt hat. Was es war, weiß ich aber nicht.",PP>OBJ,OBJ>PP,17:59:29,17:59:48,19169,44
494,t05,test,,INSTR,wh,mittels,test,PP>OBJ,above,"Ich habe gehört, dass ein Heimkind mittels eines Feuerzeugs was angezündet hat. Was es war, weiß ich aber nicht.","Ich habe gehört, dass ein Heimkind was mittels eines Feuerzeugs angezündet hat. Was es war, weiß ich aber nicht.",PP>OBJ,OBJ>PP,18:00:07,18:00:19,12716,48
494,t15,test,,COM(O),wh,mit(MOD),test,OBJ>PP,above,"Ich habe gehört, dass ein Abgeordneter zusammen mit einem Finanzplan was vorgelegt hat. Was es war, weiß ich aber nicht.","Ich habe gehört, dass ein Abgeordneter was zusammen mit einem Finanzplan vorgelegt hat. Was es war, weiß ich aber nicht.",PP>OBJ,OBJ>PP,18:00:26,18:00:35,8915,50
494,t24,test,,COM(O),NP,mit(MOD),test,OBJ>PP,above,"Ich habe gehört, dass ein Hobbykoch zusammen mit einer Knoblauchzehe eine Chilischote püriert hat. Wofür genau, weiß ich aber nicht.","Ich habe gehört, dass ein Hobbykoch eine Chilischote zusammen mit einer Knoblauchzehe püriert hat. Wofür genau, weiß ich aber nicht.",PP>OBJ,OBJ>PP,18:00:57,18:01:10,12611,53
494,t03,test,,INSTR,wh,über,test,PP>OBJ,above,"Max hat erzählt, dass ein Pfleger über eine Pipette was verabreicht hat. Was es war, weiß ich aber nicht.","Max hat erzählt, dass ein Pfleger was über eine Pipette verabreicht hat. Was es war, weiß ich aber nicht.",PP>OBJ,OBJ>PP,18:01:24,18:01:42,17875,56
494,t02,test,,INSTR,wh,über,test,OBJ>PP,below,"Lea hat erzählt, dass ein Veranstaltungstechniker über einen Computer was gesteuert hat. Was es war, weiß ich aber nicht.","Lea hat erzählt, dass ein Veranstaltungstechniker was über einen Computer gesteuert hat. Was es war, weiß ich aber nicht.",PP>OBJ,OBJ>PP,18:02:02,18:02:10,7920,59
494,t17,test,,COM(O),wh,mit(MOD),test,OBJ>PP,above,"Tim hat erzählt, dass eine Haushälterin zusammen mit einem Handtuch was gewaschen hat. Was es war, weiß ich aber nicht.","Tim hat erzählt, dass eine Haushälterin was zusammen mit einem Handtuch gewaschen hat. Was es war, weiß ich aber nicht.",PP>OBJ,OBJ>PP,18:02:36,18:02:47,11176,62
494,t10,test,,INSTR,NP,mittels,test,PP>OBJ,below,"Eva hat erzählt, dass ein Mediziner mittels einer Spritze eine Substanz injiziert hat. Was er genau gespritzt hat, weiß ich aber nicht.","Eva hat erzählt, dass ein Mediziner eine Substanz mittels einer Spritze injiziert hat. Was er genau gespritzt hat, weiß ich aber nicht.",PP>OBJ,OBJ>PP,18:03:04,18:03:12,7625,65
494,t22,test,,COM(O),NP,mit(MOD),test,OBJ>PP,below,"Kai hat erzählt, dass ein Antiquitätenhändler zusammen mit einem Gemälde eine Statue verkauft hat. Was für eine, weiß ich aber nicht.","Kai hat erzählt, dass ein Antiquitätenhändler eine Statue zusammen mit einem Gemälde verkauft hat. Was für eine, weiß ich aber nicht.",PP>OBJ,OBJ>PP,18:03:30,18:03:45,14856,68
491,t20,test,,COM(O),NP,mit(MOD),test,OBJ>PP,below,"Pia hat erzählt, dass ein Tierschützer zusammen mit einem Überweisungsträger eine Broschüre versandt hat. Was für eine, weiß ich aber nicht.","Pia hat erzählt, dass ein Tierschützer eine Broschüre zusammen mit einem Überweisungsträger versandt hat. Was für eine, weiß ich aber nicht.",PP>OBJ,OBJ>PP,17:49:43,17:50:01,17883,7
491,t19,test,,COM(O),NP,mit(MOD),test,OBJ>PP,above,"Ich habe gehört, dass eine Küchenhilfe zusammen mit einem Schnitzel einen Krapfen angebraten hat. Warum sie das getan hat, weiß ich aber nicht.","Ich habe gehört, dass eine Küchenhilfe einen Krapfen zusammen mit einem Schnitzel angebraten hat. Warum sie das getan hat, weiß ich aber nicht.",PP>OBJ,OBJ>PP,17:50:13,17:50:24,10972,9
491,t23,test,,COM(O),NP,mit(MOD),test,OBJ>PP,above,"Eva hat erzählt, dass ein Kellner zusammen mit einer Süßspeise ein Heißgetränk serviert hat. Was für eins, weiß ich aber nicht.","Eva hat erzählt, dass ein Kellner ein Heißgetränk zusammen mit einer Süßspeise serviert hat. Was für eins, weiß ich aber nicht.",PP>OBJ,OBJ>PP,17:50:39,17:50:49,9750,11
491,t17,test,,COM(O),wh,mit(MOD),test,OBJ>PP,above,"Tim hat erzählt, dass eine Haushälterin zusammen mit einem Handtuch was gewaschen hat. Was es war, weiß ich aber nicht.","Tim hat erzählt, dass eine Haushälterin was zusammen mit einem Handtuch gewaschen hat. Was es war, weiß ich aber nicht.",PP>OBJ,OBJ>PP,17:51:07,17:51:19,12009,13
491,t10,test,,INSTR,NP,mittels,test,OBJ>PP,above,"Eva hat erzählt, dass ein Mediziner mittels einer Spritze eine Substanz injiziert hat. Was er genau gespritzt hat, weiß ich aber nicht.","Eva hat erzählt, dass ein Mediziner eine Substanz mittels einer Spritze injiziert hat. Was er genau gespritzt hat, weiß ich aber nicht.",PP>OBJ,OBJ>PP,17:51:32,17:51:58,26020,15
491,t09,test,,INSTR,NP,über,test,OBJ>PP,above,"Ich habe gehört, dass ein Schüler über eine Tastatur ein Notebook bedient hat. Was er genau gemacht hat, weiß ich aber nicht.","Ich habe gehört, dass ein Schüler ein Notebook über eine Tastatur bedient hat. Was er genau gemacht hat, weiß ich aber nicht.",PP>OBJ,OBJ>PP,17:52:05,17:52:13,7949,17
491,t14,test,,COM(O),wh,mit(MOD),test,OBJ>PP,above,"Ich habe gehört, dass eine Schuldirektorin zusammen mit einer Einladung was verschickt hat. Was es war, weiß ich aber nicht.","Ich habe gehört, dass eine Schuldirektorin was zusammen mit einer Einladung verschickt hat. Was es war, weiß ich aber nicht.",PP>OBJ,OBJ>PP,17:52:27,17:52:35,8080,19
491,t22,test,,COM(O),NP,mit(MOD),test,OBJ>PP,above,"Kai hat erzählt, dass ein Antiquitätenhändler zusammen mit einem Gemälde eine Statue verkauft hat. Was für eine, weiß ich aber nicht.","Kai hat erzählt, dass ein Antiquitätenhändler eine Statue zusammen mit einem Gemälde verkauft hat. Was für eine, weiß ich aber nicht.",PP>OBJ,OBJ>PP,17:52:46,17:52:59,13270,21
491,t08,test,,INSTR,NP,über,test,OBJ>PP,above,"Ich habe gehört, dass ein Busfahrer über ein Mikrofon einen Haltestellenausfall angekündigt hat. Welche Busstation betroffen war, weiß ich aber nicht.","Ich habe gehört, dass ein Busfahrer einen Haltestellenausfall über ein Mikrofon angekündigt hat. Welche Busstation betroffen war, weiß ich aber nicht.",PP>OBJ,OBJ>PP,17:53:07,17:53:23,15776,23
491,t13,test,,COM(O),wh,mit(MOD),test,OBJ>PP,below,"Lea hat erzählt, dass ein Kleinkrimineller zusammen mit einer Stichwaffe was vergraben hat. Was es war, weiß ich aber nicht.","Lea hat erzählt, dass ein Kleinkrimineller was zusammen mit einer Stichwaffe vergraben hat. Was es war, weiß ich aber nicht.",PP>OBJ,OBJ>PP,17:53:36,17:53:43,6269,26
491,t05,test,,INSTR,wh,mittels,test,PP>OBJ,above,"Ich habe gehört, dass ein Heimkind mittels eines Feuerzeugs was angezündet hat. Was es war, weiß ich aber nicht.","Ich habe gehört, dass ein Heimkind was mittels eines Feuerzeugs angezündet hat. Was es war, weiß ich aber nicht.",PP>OBJ,OBJ>PP,17:53:54,17:53:59,4959,28
491,t04,test,,INSTR,wh,mittels,test,OBJ>PP,above,"Ich habe gehört, dass ein Wissenschaftler mittels eines Mikroskops was untersucht hat. Was es war, weiß ich aber nicht.","Ich habe gehört, dass ein Wissenschaftler was mittels eines Mikroskops untersucht hat. Was es war, weiß ich aber nicht.",PP>OBJ,OBJ>PP,17:54:19,17:54:29,9905,31
491,t01,test,,INSTR,wh,über,test,OBJ>PP,below,"Ben hat erzählt, dass ein Geschäftsmann über eine Kreditkarte was abgerechnet hat. Was es war, weiß ich aber nicht.","Ben hat erzählt, dass ein Geschäftsmann was über eine Kreditkarte abgerechnet hat. Was es war, weiß ich aber nicht.",PP>OBJ,OBJ>PP,17:54:45,17:54:53,7254,34
491,t18,test,,COM(O),wh,mit(MOD),test,OBJ>PP,below,"Ich habe gehört, dass ein Kurator zusammen mit einem Preisgeld was verliehen hat. Was es war, weiß ich aber nicht.","Ich habe gehört, dass ein Kurator was zusammen mit einem Preisgeld verliehen hat. Was es war, weiß ich aber nicht.",PP>OBJ,OBJ>PP,17:55:12,17:55:32,19259,37
491,t03,test,,INSTR,wh,über,test,OBJ>PP,above,"Max hat erzählt, dass ein Pfleger über eine Pipette was verabreicht hat. Was es war, weiß ich aber nicht.","Max hat erzählt, dass ein Pfleger was über eine Pipette verabreicht hat. Was es war, weiß ich aber nicht.",PP>OBJ,OBJ>PP,17:55:51,17:55:57,6689,41
491,t11,test,,INSTR,NP,mittels,test,OBJ>PP,above,"Ich habe gehört, dass ein Fußballer mittels eines Attests eine Verletzung nachgewiesen hat. Was er genau hatte, weiß ich aber nicht.","Ich habe gehört, dass ein Fußballer eine Verletzung mittels eines Attests nachgewiesen hat. Was er genau hatte, weiß ich aber nicht.",PP>OBJ,OBJ>PP,17:56:05,17:56:20,15254,43
491,t02,test,,INSTR,wh,über,test,OBJ>PP,below,"Lea hat erzählt, dass ein Veranstaltungstechniker über einen Computer was gesteuert hat. Was es war, weiß ich aber nicht.","Lea hat erzählt, dass ein Veranstaltungstechniker was über einen Computer gesteuert hat. Was es war, weiß ich aber nicht.",PP>OBJ,OBJ>PP,17:56:29,17:56:34,5367,45
491,t21,test,,COM(O),NP,mit(MOD),test,OBJ>PP,below,"Ich habe gehört, dass ein Minister zusammen mit einer Urkunde einen Orden überreicht hat. Was für einen, weiß ich aber nicht.","Ich habe gehört, dass ein Minister einen Orden zusammen mit einer Urkunde überreicht hat. Was für einen, weiß ich aber nicht.",PP>OBJ,OBJ>PP,17:56:50,17:57:00,9611,49
491,t06,test,,INSTR,wh,mittels,test,OBJ>PP,below,"Pia hat erzählt, dass ein Industriearbeiter mittels einer Turbine was angetrieben hat. Was es war, weiß ich aber nicht.","Pia hat erzählt, dass ein Industriearbeiter was mittels einer Turbine angetrieben hat. Was es war, weiß ich aber nicht.",PP>OBJ,OBJ>PP,17:57:14,17:57:20,6616,52
491,t15,test,,COM(O),wh,mit(MOD),test,OBJ>PP,below,"Ich habe gehört, dass ein Abgeordneter zusammen mit einem Finanzplan was vorgelegt hat. Was es war, weiß ich aber nicht.","Ich habe gehört, dass ein Abgeordneter was zusammen mit einem Finanzplan vorgelegt hat. Was es war, weiß ich aber nicht.",PP>OBJ,OBJ>PP,17:57:31,17:57:38,6599,54
491,t07,test,,INSTR,NP,über,test,OBJ>PP,above,"Ich habe gehört, dass ein Angestellter über einen Grafikeditor ein Schnittmuster erstellt hat. Was für eins es war, weiß ich aber nicht.","Ich habe gehört, dass ein Angestellter ein Schnittmuster über einen Grafikeditor erstellt hat. Was für eins es war, weiß ich aber nicht.",PP>OBJ,OBJ>PP,17:57:55,17:58:13,17609,57
491,t16,test,,COM(O),wh,mit(MOD),test,OBJ>PP,below,"Jan hat erzählt, dass ein Lokaljournalist zusammen mit einem Foto was veröffentlicht hat. Was es war, weiß ich aber nicht.","Jan hat erzählt, dass ein Lokaljournalist was zusammen mit einem Foto veröffentlicht hat. Was es war, weiß ich aber nicht.",PP>OBJ,OBJ>PP,17:58:38,17:58:43,5175,60
491,t24,test,,COM(O),NP,mit(MOD),test,OBJ>PP,above,"Ich habe gehört, dass ein Hobbykoch zusammen mit einer Knoblauchzehe eine Chilischote püriert hat. Wofür genau, weiß ich aber nicht.","Ich habe gehört, dass ein Hobbykoch eine Chilischote zusammen mit einer Knoblauchzehe püriert hat. Wofür genau, weiß ich aber nicht.",PP>OBJ,OBJ>PP,17:59:12,17:59:21,8768,64
491,t12,test,,INSTR,NP,mittels,test,OBJ>PP,above,"Jan hat erzählt, dass ein Truppenführer mittels eines Mobiltelefons einen Befehl übermittelt hat. Was für einen, weiß ich aber nicht.","Jan hat erzählt, dass ein Truppenführer einen Befehl mittels eines Mobiltelefons übermittelt hat. Was für einen, weiß ich aber nicht.",PP>OBJ,OBJ>PP,17:59:34,17:59:44,9971,67
489,t16,test,,COM(O),wh,mit(MOD),test,OBJ>PP,below,"Jan hat erzählt, dass ein Lokaljournalist zusammen mit einem Foto was veröffentlicht hat. Was es war, weiß ich aber nicht.","Jan hat erzählt, dass ein Lokaljournalist was zusammen mit einem Foto veröffentlicht hat. Was es war, weiß ich aber nicht.",PP>OBJ,OBJ>PP,17:47:15,17:47:27,12107,7
489,t04,test,,INSTR,wh,mittels,test,PP>OBJ,below,"Ich habe gehört, dass ein Wissenschaftler mittels eines Mikroskops was untersucht hat. Was es war, weiß ich aber nicht.","Ich habe gehört, dass ein Wissenschaftler was mittels eines Mikroskops untersucht hat. Was es war, weiß ich aber nicht.",PP>OBJ,OBJ>PP,17:47:37,17:47:50,13829,9
489,t07,test,,INSTR,NP,über,test,PP>OBJ,above,"Ich habe gehört, dass ein Angestellter über einen Grafikeditor ein Schnittmuster erstellt hat. Was für eins es war, weiß ich aber nicht.","Ich habe gehört, dass ein Angestellter ein Schnittmuster über einen Grafikeditor erstellt hat. Was für eins es war, weiß ich aber nicht.",PP>OBJ,OBJ>PP,17:47:55,17:48:10,14841,11
489,t23,test,,COM(O),NP,mit(MOD),test,OBJ>PP,below,"Eva hat erzählt, dass ein Kellner zusammen mit einer Süßspeise ein Heißgetränk serviert hat. Was für eins, weiß ich aber nicht.","Eva hat erzählt, dass ein Kellner ein Heißgetränk zusammen mit einer Süßspeise serviert hat. Was für eins, weiß ich aber nicht.",PP>OBJ,OBJ>PP,17:48:28,17:48:34,6162,13
489,t11,test,,INSTR,NP,mittels,test,OBJ>PP,below,"Ich habe gehört, dass ein Fußballer mittels eines Attests eine Verletzung nachgewiesen hat. Was er genau hatte, weiß ich aber nicht.","Ich habe gehört, dass ein Fußballer eine Verletzung mittels eines Attests nachgewiesen hat. Was er genau hatte, weiß ich aber nicht.",PP>OBJ,OBJ>PP,17:48:43,17:49:03,19904,15
489,t02,test,,INSTR,wh,über,test,OBJ>PP,below,"Lea hat erzählt, dass ein Veranstaltungstechniker über einen Computer was gesteuert hat. Was es war, weiß ich aber nicht.","Lea hat erzählt, dass ein Veranstaltungstechniker was über einen Computer gesteuert hat. Was es war, weiß ich aber nicht.",PP>OBJ,OBJ>PP,17:49:08,17:49:14,6415,17
489,t12,test,,INSTR,NP,mittels,test,PP>OBJ,above,"Jan hat erzählt, dass ein Truppenführer mittels eines Mobiltelefons einen Befehl übermittelt hat. Was für einen, weiß ich aber nicht.","Jan hat erzählt, dass ein Truppenführer einen Befehl mittels eines Mobiltelefons übermittelt hat. Was für einen, weiß ich aber nicht.",PP>OBJ,OBJ>PP,17:49:22,17:49:33,11389,19
489,t21,test,,COM(O),NP,mit(MOD),test,OBJ>PP,above,"Ich habe gehört, dass ein Minister zusammen mit einer Urkunde einen Orden überreicht hat. Was für einen, weiß ich aber nicht.","Ich habe gehört, dass ein Minister einen Orden zusammen mit einer Urkunde überreicht hat. Was für einen, weiß ich aber nicht.",PP>OBJ,OBJ>PP,17:49:45,17:49:53,8408,21
489,t01,test,,INSTR,wh,über,test,OBJ>PP,below,"Ben hat erzählt, dass ein Geschäftsmann über eine Kreditkarte was abgerechnet hat. Was es war, weiß ich aber nicht.","Ben hat erzählt, dass ein Geschäftsmann was über eine Kreditkarte abgerechnet hat. Was es war, weiß ich aber nicht.",PP>OBJ,OBJ>PP,17:50:03,17:50:08,5342,23
489,t10,test,,INSTR,NP,mittels,test,OBJ>PP,above,"Eva hat erzählt, dass ein Mediziner mittels einer Spritze eine Substanz injiziert hat. Was er genau gespritzt hat, weiß ich aber nicht.","Eva hat erzählt, dass ein Mediziner eine Substanz mittels einer Spritze injiziert hat. Was er genau gespritzt hat, weiß ich aber nicht.",PP>OBJ,OBJ>PP,17:50:25,17:50:35,10373,27
489,t19,test,,COM(O),NP,mit(MOD),test,OBJ>PP,below,"Ich habe gehört, dass eine Küchenhilfe zusammen mit einem Schnitzel einen Krapfen angebraten hat. Warum sie das getan hat, weiß ich aber nicht.","Ich habe gehört, dass eine Küchenhilfe einen Krapfen zusammen mit einem Schnitzel angebraten hat. Warum sie das getan hat, weiß ich aber nicht.",PP>OBJ,OBJ>PP,17:50:45,17:50:53,7399,30
489,t05,test,,INSTR,wh,mittels,test,OBJ>PP,below,"Ich habe gehört, dass ein Heimkind mittels eines Feuerzeugs was angezündet hat. Was es war, weiß ich aber nicht.","Ich habe gehört, dass ein Heimkind was mittels eines Feuerzeugs angezündet hat. Was es war, weiß ich aber nicht.",PP>OBJ,OBJ>PP,17:51:11,17:51:17,6426,34
489,t15,test,,COM(O),wh,mit(MOD),test,OBJ>PP,below,"Ich habe gehört, dass ein Abgeordneter zusammen mit einem Finanzplan was vorgelegt hat. Was es war, weiß ich aber nicht.","Ich habe gehört, dass ein Abgeordneter was zusammen mit einem Finanzplan vorgelegt hat. Was es war, weiß ich aber nicht.",PP>OBJ,OBJ>PP,17:51:28,17:51:33,5113,37
489,t20,test,,COM(O),NP,mit(MOD),test,OBJ>PP,above,"Pia hat erzählt, dass ein Tierschützer zusammen mit einem Überweisungsträger eine Broschüre versandt hat. Was für eine, weiß ich aber nicht.","Pia hat erzählt, dass ein Tierschützer eine Broschüre zusammen mit einem Überweisungsträger versandt hat. Was für eine, weiß ich aber nicht.",PP>OBJ,OBJ>PP,17:51:39,17:51:45,6274,39
489,t09,test,,INSTR,NP,über,test,OBJ>PP,below,"Ich habe gehört, dass ein Schüler über eine Tastatur ein Notebook bedient hat. Was er genau gemacht hat, weiß ich aber nicht.","Ich habe gehört, dass ein Schüler ein Notebook über eine Tastatur bedient hat. Was er genau gemacht hat, weiß ich aber nicht.",PP>OBJ,OBJ>PP,17:51:56,17:52:02,5955,41
489,t14,test,,COM(O),wh,mit(MOD),test,OBJ>PP,above,"Ich habe gehört, dass eine Schuldirektorin zusammen mit einer Einladung was verschickt hat. Was es war, weiß ich aber nicht.","Ich habe gehört, dass eine Schuldirektorin was zusammen mit einer Einladung verschickt hat. Was es war, weiß ich aber nicht.",PP>OBJ,OBJ>PP,17:52:11,17:52:20,9071,43
489,t18,test,,COM(O),wh,mit(MOD),test,OBJ>PP,above,"Ich habe gehört, dass ein Kurator zusammen mit einem Preisgeld was verliehen hat. Was es war, weiß ich aber nicht.","Ich habe gehört, dass ein Kurator was zusammen mit einem Preisgeld verliehen hat. Was es war, weiß ich aber nicht.",PP>OBJ,OBJ>PP,17:52:29,17:52:36,6545,45
489,t17,test,,COM(O),wh,mit(MOD),test,OBJ>PP,below,"Tim hat erzählt, dass eine Haushälterin zusammen mit einem Handtuch was gewaschen hat. Was es war, weiß ich aber nicht.","Tim hat erzählt, dass eine Haushälterin was zusammen mit einem Handtuch gewaschen hat. Was es war, weiß ich aber nicht.",PP>OBJ,OBJ>PP,17:52:49,17:52:56,7459,48
489,t03,test,,INSTR,wh,über,test,OBJ>PP,above,"Max hat erzählt, dass ein Pfleger über eine Pipette was verabreicht hat. Was es war, weiß ich aber nicht.","Max hat erzählt, dass ein Pfleger was über eine Pipette verabreicht hat. Was es war, weiß ich aber nicht.",PP>OBJ,OBJ>PP,17:53:13,17:53:19,6262,51
489,t22,test,,COM(O),NP,mit(MOD),test,OBJ>PP,below,"Kai hat erzählt, dass ein Antiquitätenhändler zusammen mit einem Gemälde eine Statue verkauft hat. Was für eine, weiß ich aber nicht.","Kai hat erzählt, dass ein Antiquitätenhändler eine Statue zusammen mit einem Gemälde verkauft hat. Was für eine, weiß ich aber nicht.",PP>OBJ,OBJ>PP,17:53:33,17:53:39,5937,54
489,t24,test,,COM(O),NP,mit(MOD),test,OBJ>PP,above,"Ich habe gehört, dass ein Hobbykoch zusammen mit einer Knoblauchzehe eine Chilischote püriert hat. Wofür genau, weiß ich aber nicht.","Ich habe gehört, dass ein Hobbykoch eine Chilischote zusammen mit einer Knoblauchzehe püriert hat. Wofür genau, weiß ich aber nicht.",PP>OBJ,OBJ>PP,17:53:50,17:53:57,6787,57
489,t13,test,,COM(O),wh,mit(MOD),test,OBJ>PP,below,"Lea hat erzählt, dass ein Kleinkrimineller zusammen mit einer Stichwaffe was vergraben hat. Was es war, weiß ich aber nicht.","Lea hat erzählt, dass ein Kleinkrimineller was zusammen mit einer Stichwaffe vergraben hat. Was es war, weiß ich aber nicht.",PP>OBJ,OBJ>PP,17:54:14,17:54:18,4632,61
489,t06,test,,INSTR,wh,mittels,test,OBJ>PP,above,"Pia hat erzählt, dass ein Industriearbeiter mittels einer Turbine was angetrieben hat. Was es war, weiß ich aber nicht.","Pia hat erzählt, dass ein Industriearbeiter was mittels einer Turbine angetrieben hat. Was es war, weiß ich aber nicht.",PP>OBJ,OBJ>PP,17:54:30,17:54:37,7649,64
489,t08,test,,INSTR,NP,über,test,PP>OBJ,above,"Ich habe gehört, dass ein Busfahrer über ein Mikrofon einen Haltestellenausfall angekündigt hat. Welche Busstation betroffen war, weiß ich aber nicht.","Ich habe gehört, dass ein Busfahrer einen Haltestellenausfall über ein Mikrofon angekündigt hat. Welche Busstation betroffen war, weiß ich aber nicht.",PP>OBJ,OBJ>PP,17:55:00,17:55:10,9836,68
487,t08,test,,INSTR,NP,über,test,OBJ>PP,above,"Ich habe gehört, dass ein Busfahrer über ein Mikrofon einen Haltestellenausfall angekündigt hat. Welche Busstation betroffen war, weiß ich aber nicht.","Ich habe gehört, dass ein Busfahrer einen Haltestellenausfall über ein Mikrofon angekündigt hat. Welche Busstation betroffen war, weiß ich aber nicht.",PP>OBJ,OBJ>PP,11:48:30,11:48:39,9618,7
487,t05,test,,INSTR,wh,mittels,test,OBJ>PP,below,"Ich habe gehört, dass ein Heimkind mittels eines Feuerzeugs was angezündet hat. Was es war, weiß ich aber nicht.","Ich habe gehört, dass ein Heimkind was mittels eines Feuerzeugs angezündet hat. Was es war, weiß ich aber nicht.",PP>OBJ,OBJ>PP,11:48:48,11:49:01,12453,9
487,t01,test,,INSTR,wh,über,test,PP>OBJ,below,"Ben hat erzählt, dass ein Geschäftsmann über eine Kreditkarte was abgerechnet hat. Was es war, weiß ich aber nicht.","Ben hat erzählt, dass ein Geschäftsmann was über eine Kreditkarte abgerechnet hat. Was es war, weiß ich aber nicht.",PP>OBJ,OBJ>PP,11:49:34,11:49:43,8692,11
487,t21,test,,COM(O),NP,mit(MOD),test,PP>OBJ,above,"Ich habe gehört, dass ein Minister zusammen mit einer Urkunde einen Orden überreicht hat. Was für einen, weiß ich aber nicht.","Ich habe gehört, dass ein Minister einen Orden zusammen mit einer Urkunde überreicht hat. Was für einen, weiß ich aber nicht.",PP>OBJ,OBJ>PP,11:49:53,11:50:08,14864,13
487,t11,test,,INSTR,NP,mittels,test,OBJ>PP,above,"Ich habe gehört, dass ein Fußballer mittels eines Attests eine Verletzung nachgewiesen hat. Was er genau hatte, weiß ich aber nicht.","Ich habe gehört, dass ein Fußballer eine Verletzung mittels eines Attests nachgewiesen hat. Was er genau hatte, weiß ich aber nicht.",PP>OBJ,OBJ>PP,11:50:26,11:50:42,16762,15
487,t13,test,,COM(O),wh,mit(MOD),test,OBJ>PP,below,"Lea hat erzählt, dass ein Kleinkrimineller zusammen mit einer Stichwaffe was vergraben hat. Was es war, weiß ich aber nicht.","Lea hat erzählt, dass ein Kleinkrimineller was zusammen mit einer Stichwaffe vergraben hat. Was es war, weiß ich aber nicht.",PP>OBJ,OBJ>PP,11:50:58,11:51:24,25884,17
487,t10,test,,INSTR,NP,mittels,test,OBJ>PP,above,"Eva hat erzählt, dass ein Mediziner mittels einer Spritze eine Substanz injiziert hat. Was er genau gespritzt hat, weiß ich aber nicht.","Eva hat erzählt, dass ein Mediziner eine Substanz mittels einer Spritze injiziert hat. Was er genau gespritzt hat, weiß ich aber nicht.",PP>OBJ,OBJ>PP,11:51:40,11:52:04,24182,19
487,t07,test,,INSTR,NP,über,test,OBJ>PP,below,"Ich habe gehört, dass ein Angestellter über einen Grafikeditor ein Schnittmuster erstellt hat. Was für eins es war, weiß ich aber nicht.","Ich habe gehört, dass ein Angestellter ein Schnittmuster über einen Grafikeditor erstellt hat. Was für eins es war, weiß ich aber nicht.",PP>OBJ,OBJ>PP,11:52:17,11:52:31,13510,21
487,t17,test,,COM(O),wh,mit(MOD),test,OBJ>PP,above,"Tim hat erzählt, dass eine Haushälterin zusammen mit einem Handtuch was gewaschen hat. Was es war, weiß ich aber nicht.","Tim hat erzählt, dass eine Haushälterin was zusammen mit einem Handtuch gewaschen hat. Was es war, weiß ich aber nicht.",PP>OBJ,OBJ>PP,11:52:55,11:53:14,18432,23
487,t19,test,,COM(O),NP,mit(MOD),test,OBJ>PP,below,"Ich habe gehört, dass eine Küchenhilfe zusammen mit einem Schnitzel einen Krapfen angebraten hat. Warum sie das getan hat, weiß ich aber nicht.","Ich habe gehört, dass eine Küchenhilfe einen Krapfen zusammen mit einem Schnitzel angebraten hat. Warum sie das getan hat, weiß ich aber nicht.",PP>OBJ,OBJ>PP,11:53:47,11:54:02,14484,27
487,t03,test,,INSTR,wh,über,test,OBJ>PP,below,"Max hat erzählt, dass ein Pfleger über eine Pipette was verabreicht hat. Was es war, weiß ich aber nicht.","Max hat erzählt, dass ein Pfleger was über eine Pipette verabreicht hat. Was es war, weiß ich aber nicht.",PP>OBJ,OBJ>PP,11:54:33,11:54:44,10874,30
487,t15,test,,COM(O),wh,mit(MOD),test,PP>OBJ,below,"Ich habe gehört, dass ein Abgeordneter zusammen mit einem Finanzplan was vorgelegt hat. Was es war, weiß ich aber nicht.","Ich habe gehört, dass ein Abgeordneter was zusammen mit einem Finanzplan vorgelegt hat. Was es war, weiß ich aber nicht.",PP>OBJ,OBJ>PP,11:54:59,11:55:20,20920,32
487,t09,test,,INSTR,NP,über,test,PP>OBJ,below,"Ich habe gehört, dass ein Schüler über eine Tastatur ein Notebook bedient hat. Was er genau gemacht hat, weiß ich aber nicht.","Ich habe gehört, dass ein Schüler ein Notebook über eine Tastatur bedient hat. Was er genau gemacht hat, weiß ich aber nicht.",PP>OBJ,OBJ>PP,11:55:34,11:55:48,14432,34
487,t16,test,,COM(O),wh,mit(MOD),test,OBJ>PP,below,"Jan hat erzählt, dass ein Lokaljournalist zusammen mit einem Foto was veröffentlicht hat. Was es war, weiß ich aber nicht.","Jan hat erzählt, dass ein Lokaljournalist was zusammen mit einem Foto veröffentlicht hat. Was es war, weiß ich aber nicht.",PP>OBJ,OBJ>PP,11:56:07,11:56:20,13515,37
487,t04,test,,INSTR,wh,mittels,test,OBJ>PP,below,"Ich habe gehört, dass ein Wissenschaftler mittels eines Mikroskops was untersucht hat. Was es war, weiß ich aber nicht.","Ich habe gehört, dass ein Wissenschaftler was mittels eines Mikroskops untersucht hat. Was es war, weiß ich aber nicht.",PP>OBJ,OBJ>PP,11:56:54,11:57:10,15757,41
487,t24,test,,COM(O),NP,mit(MOD),test,PP>OBJ,below,"Ich habe gehört, dass ein Hobbykoch zusammen mit einer Knoblauchzehe eine Chilischote püriert hat. Wofür genau, weiß ich aber nicht.","Ich habe gehört, dass ein Hobbykoch eine Chilischote zusammen mit einer Knoblauchzehe püriert hat. Wofür genau, weiß ich aber nicht.",PP>OBJ,OBJ>PP,11:57:27,11:57:43,16655,44
487,t22,test,,COM(O),NP,mit(MOD),test,PP>OBJ,below,"Kai hat erzählt, dass ein Antiquitätenhändler zusammen mit einem Gemälde eine Statue verkauft hat. Was für eine, weiß ich aber nicht.","Kai hat erzählt, dass ein Antiquitätenhändler eine Statue zusammen mit einem Gemälde verkauft hat. Was für eine, weiß ich aber nicht.",PP>OBJ,OBJ>PP,11:58:06,11:58:18,12178,47
487,t18,test,,COM(O),wh,mit(MOD),test,PP>OBJ,above,"Ich habe gehört, dass ein Kurator zusammen mit einem Preisgeld was verliehen hat. Was es war, weiß ich aber nicht.","Ich habe gehört, dass ein Kurator was zusammen mit einem Preisgeld verliehen hat. Was es war, weiß ich aber nicht.",PP>OBJ,OBJ>PP,11:58:34,11:58:52,18306,49
487,t02,test,,INSTR,wh,über,test,OBJ>PP,below,"Lea hat erzählt, dass ein Veranstaltungstechniker über einen Computer was gesteuert hat. Was es war, weiß ich aber nicht.","Lea hat erzählt, dass ein Veranstaltungstechniker was über einen Computer gesteuert hat. Was es war, weiß ich aber nicht.",PP>OBJ,OBJ>PP,11:59:52,12:00:15,23285,53
487,t12,test,,INSTR,NP,mittels,test,OBJ>PP,above,"Jan hat erzählt, dass ein Truppenführer mittels eines Mobiltelefons einen Befehl übermittelt hat. Was für einen, weiß ich aber nicht.","Jan hat erzählt, dass ein Truppenführer einen Befehl mittels eines Mobiltelefons übermittelt hat. Was für einen, weiß ich aber nicht.",PP>OBJ,OBJ>PP,12:00:39,12:00:53,14001,55
487,t23,test,,COM(O),NP,mit(MOD),test,PP>OBJ,below,"Eva hat erzählt, dass ein Kellner zusammen mit einer Süßspeise ein Heißgetränk serviert hat. Was für eins, weiß ich aber nicht.","Eva hat erzählt, dass ein Kellner ein Heißgetränk zusammen mit einer Süßspeise serviert hat. Was für eins, weiß ich aber nicht.",PP>OBJ,OBJ>PP,12:01:32,12:01:40,8060,59
487,t20,test,,COM(O),NP,mit(MOD),test,OBJ>PP,above,"Pia hat erzählt, dass ein Tierschützer zusammen mit einem Überweisungsträger eine Broschüre versandt hat. Was für eine, weiß ich aber nicht.","Pia hat erzählt, dass ein Tierschützer eine Broschüre zusammen mit einem Überweisungsträger versandt hat. Was für eine, weiß ich aber nicht.",PP>OBJ,OBJ>PP,12:02:04,12:02:18,13648,62
487,t14,test,,COM(O),wh,mit(MOD),test,OBJ>PP,below,"Ich habe gehört, dass eine Schuldirektorin zusammen mit einer Einladung was verschickt hat. Was es war, weiß ich aber nicht.","Ich habe gehört, dass eine Schuldirektorin was zusammen mit einer Einladung verschickt hat. Was es war, weiß ich aber nicht.",PP>OBJ,OBJ>PP,12:02:49,12:03:11,22447,65
487,t06,test,,INSTR,wh,mittels,test,OBJ>PP,above,"Pia hat erzählt, dass ein Industriearbeiter mittels einer Turbine was angetrieben hat. Was es war, weiß ich aber nicht.","Pia hat erzählt, dass ein Industriearbeiter was mittels einer Turbine angetrieben hat. Was es war, weiß ich aber nicht.",PP>OBJ,OBJ>PP,12:03:48,12:03:59,11208,68
486,t07,test,,INSTR,NP,über,test,OBJ>PP,above,"Ich habe gehört, dass ein Angestellter über einen Grafikeditor ein Schnittmuster erstellt hat. Was für eins es war, weiß ich aber nicht.","Ich habe gehört, dass ein Angestellter ein Schnittmuster über einen Grafikeditor erstellt hat. Was für eins es war, weiß ich aber nicht.",PP>OBJ,OBJ>PP,17:47:17,17:47:33,16759,7
486,t15,test,,COM(O),wh,mit(MOD),test,OBJ>PP,above,"Ich habe gehört, dass ein Abgeordneter zusammen mit einem Finanzplan was vorgelegt hat. Was es war, weiß ich aber nicht.","Ich habe gehört, dass ein Abgeordneter was zusammen mit einem Finanzplan vorgelegt hat. Was es war, weiß ich aber nicht.",PP>OBJ,OBJ>PP,17:47:44,17:48:06,21983,9
486,t24,test,,COM(O),NP,mit(MOD),test,OBJ>PP,below,"Ich habe gehört, dass ein Hobbykoch zusammen mit einer Knoblauchzehe eine Chilischote püriert hat. Wofür genau, weiß ich aber nicht.","Ich habe gehört, dass ein Hobbykoch eine Chilischote zusammen mit einer Knoblauchzehe püriert hat. Wofür genau, weiß ich aber nicht.",PP>OBJ,OBJ>PP,17:48:20,17:48:29,9495,11
486,t17,test,,COM(O),wh,mit(MOD),test,OBJ>PP,above,"Tim hat erzählt, dass eine Haushälterin zusammen mit einem Handtuch was gewaschen hat. Was es war, weiß ich aber nicht.","Tim hat erzählt, dass eine Haushälterin was zusammen mit einem Handtuch gewaschen hat. Was es war, weiß ich aber nicht.",PP>OBJ,OBJ>PP,17:48:39,17:48:50,10742,13
486,t01,test,,INSTR,wh,über,test,OBJ>PP,above,"Ben hat erzählt, dass ein Geschäftsmann über eine Kreditkarte was abgerechnet hat. Was es war, weiß ich aber nicht.","Ben hat erzählt, dass ein Geschäftsmann was über eine Kreditkarte abgerechnet hat. Was es war, weiß ich aber nicht.",PP>OBJ,OBJ>PP,17:49:01,17:49:19,17863,15
486,t23,test,,COM(O),NP,mit(MOD),test,OBJ>PP,below,"Eva hat erzählt, dass ein Kellner zusammen mit einer Süßspeise ein Heißgetränk serviert hat. Was für eins, weiß ich aber nicht.","Eva hat erzählt, dass ein Kellner ein Heißgetränk zusammen mit einer Süßspeise serviert hat. Was für eins, weiß ich aber nicht.",PP>OBJ,OBJ>PP,17:49:24,17:49:37,12624,17
486,t19,test,,COM(O),NP,mit(MOD),test,OBJ>PP,above,"Ich habe gehört, dass eine Küchenhilfe zusammen mit einem Schnitzel einen Krapfen angebraten hat. Warum sie das getan hat, weiß ich aber nicht.","Ich habe gehört, dass eine Küchenhilfe einen Krapfen zusammen mit einem Schnitzel angebraten hat. Warum sie das getan hat, weiß ich aber nicht.",PP>OBJ,OBJ>PP,17:49:46,17:49:55,8918,19
486,t09,test,,INSTR,NP,über,test,PP>OBJ,below,"Ich habe gehört, dass ein Schüler über eine Tastatur ein Notebook bedient hat. Was er genau gemacht hat, weiß ich aber nicht.","Ich habe gehört, dass ein Schüler ein Notebook über eine Tastatur bedient hat. Was er genau gemacht hat, weiß ich aber nicht.",PP>OBJ,OBJ>PP,17:50:03,17:50:20,17382,21
486,t20,test,,COM(O),NP,mit(MOD),test,OBJ>PP,above,"Pia hat erzählt, dass ein Tierschützer zusammen mit einem Überweisungsträger eine Broschüre versandt hat. Was für eine, weiß ich aber nicht.","Pia hat erzählt, dass ein Tierschützer eine Broschüre zusammen mit einem Überweisungsträger versandt hat. Was für eine, weiß ich aber nicht.",PP>OBJ,OBJ>PP,17:50:33,17:50:47,13974,23
486,t18,test,,COM(O),wh,mit(MOD),test,PP>OBJ,above,"Ich habe gehört, dass ein Kurator zusammen mit einem Preisgeld was verliehen hat. Was es war, weiß ich aber nicht.","Ich habe gehört, dass ein Kurator was zusammen mit einem Preisgeld verliehen hat. Was es war, weiß ich aber nicht.",PP>OBJ,OBJ>PP,17:51:11,17:51:29,18000,26
486,t06,test,,INSTR,wh,mittels,test,OBJ>PP,below,"Pia hat erzählt, dass ein Industriearbeiter mittels einer Turbine was angetrieben hat. Was es war, weiß ich aber nicht.","Pia hat erzählt, dass ein Industriearbeiter was mittels einer Turbine angetrieben hat. Was es war, weiß ich aber nicht.",PP>OBJ,OBJ>PP,17:51:40,17:51:53,12815,28
486,t10,test,,INSTR,NP,mittels,test,OBJ>PP,above,"Eva hat erzählt, dass ein Mediziner mittels einer Spritze eine Substanz injiziert hat. Was er genau gespritzt hat, weiß ich aber nicht.","Eva hat erzählt, dass ein Mediziner eine Substanz mittels einer Spritze injiziert hat. Was er genau gespritzt hat, weiß ich aber nicht.",PP>OBJ,OBJ>PP,17:52:17,17:52:41,24076,31
486,t11,test,,INSTR,NP,mittels,test,PP>OBJ,above,"Ich habe gehört, dass ein Fußballer mittels eines Attests eine Verletzung nachgewiesen hat. Was er genau hatte, weiß ich aber nicht.","Ich habe gehört, dass ein Fußballer eine Verletzung mittels eines Attests nachgewiesen hat. Was er genau hatte, weiß ich aber nicht.",PP>OBJ,OBJ>PP,17:53:11,17:53:30,18616,35
486,t12,test,,INSTR,NP,mittels,test,OBJ>PP,below,"Jan hat erzählt, dass ein Truppenführer mittels eines Mobiltelefons einen Befehl übermittelt hat. Was für einen, weiß ich aber nicht.","Jan hat erzählt, dass ein Truppenführer einen Befehl mittels eines Mobiltelefons übermittelt hat. Was für einen, weiß ich aber nicht.",PP>OBJ,OBJ>PP,17:53:47,17:53:57,10118,38
486,t02,test,,INSTR,wh,über,test,OBJ>PP,below,"Lea hat erzählt, dass ein Veranstaltungstechniker über einen Computer was gesteuert hat. Was es war, weiß ich aber nicht.","Lea hat erzählt, dass ein Veranstaltungstechniker was über einen Computer gesteuert hat. Was es war, weiß ich aber nicht.",PP>OBJ,OBJ>PP,17:54:07,17:54:17,9343,40
486,t21,test,,COM(O),NP,mit(MOD),test,OBJ>PP,above,"Ich habe gehört, dass ein Minister zusammen mit einer Urkunde einen Orden überreicht hat. Was für einen, weiß ich aber nicht.","Ich habe gehört, dass ein Minister einen Orden zusammen mit einer Urkunde überreicht hat. Was für einen, weiß ich aber nicht.",PP>OBJ,OBJ>PP,17:54:42,17:54:53,10935,44
486,t04,test,,INSTR,wh,mittels,test,PP>OBJ,below,"Ich habe gehört, dass ein Wissenschaftler mittels eines Mikroskops was untersucht hat. Was es war, weiß ich aber nicht.","Ich habe gehört, dass ein Wissenschaftler was mittels eines Mikroskops untersucht hat. Was es war, weiß ich aber nicht.",PP>OBJ,OBJ>PP,17:55:11,17:55:23,11494,47
486,t13,test,,COM(O),wh,mit(MOD),test,PP>OBJ,below,"Lea hat erzählt, dass ein Kleinkrimineller zusammen mit einer Stichwaffe was vergraben hat. Was es war, weiß ich aber nicht.","Lea hat erzählt, dass ein Kleinkrimineller was zusammen mit einer Stichwaffe vergraben hat. Was es war, weiß ich aber nicht.",PP>OBJ,OBJ>PP,17:55:32,17:55:49,16646,49
486,t08,test,,INSTR,NP,über,test,OBJ>PP,above,"Ich habe gehört, dass ein Busfahrer über ein Mikrofon einen Haltestellenausfall angekündigt hat. Welche Busstation betroffen war, weiß ich aber nicht.","Ich habe gehört, dass ein Busfahrer einen Haltestellenausfall über ein Mikrofon angekündigt hat. Welche Busstation betroffen war, weiß ich aber nicht.",PP>OBJ,OBJ>PP,17:56:02,17:56:20,18036,51
486,t14,test,,COM(O),wh,mit(MOD),test,PP>OBJ,above,"Ich habe gehört, dass eine Schuldirektorin zusammen mit einer Einladung was verschickt hat. Was es war, weiß ich aber nicht.","Ich habe gehört, dass eine Schuldirektorin was zusammen mit einer Einladung verschickt hat. Was es war, weiß ich aber nicht.",PP>OBJ,OBJ>PP,17:56:49,17:57:03,14557,55
486,t22,test,,COM(O),NP,mit(MOD),test,OBJ>PP,above,"Kai hat erzählt, dass ein Antiquitätenhändler zusammen mit einem Gemälde eine Statue verkauft hat. Was für eine, weiß ich aber nicht.","Kai hat erzählt, dass ein Antiquitätenhändler eine Statue zusammen mit einem Gemälde verkauft hat. Was für eine, weiß ich aber nicht.",PP>OBJ,OBJ>PP,17:57:13,17:57:25,12455,57
486,t05,test,,INSTR,wh,mittels,test,OBJ>PP,above,"Ich habe gehört, dass ein Heimkind mittels eines Feuerzeugs was angezündet hat. Was es war, weiß ich aber nicht.","Ich habe gehört, dass ein Heimkind was mittels eines Feuerzeugs angezündet hat. Was es war, weiß ich aber nicht.",PP>OBJ,OBJ>PP,17:57:58,17:58:09,11293,61
486,t16,test,,COM(O),wh,mit(MOD),test,OBJ>PP,above,"Jan hat erzählt, dass ein Lokaljournalist zusammen mit einem Foto was veröffentlicht hat. Was es war, weiß ich aber nicht.","Jan hat erzählt, dass ein Lokaljournalist was zusammen mit einem Foto veröffentlicht hat. Was es war, weiß ich aber nicht.",PP>OBJ,OBJ>PP,17:58:26,17:58:40,14919,64
486,t03,test,,INSTR,wh,über,test,OBJ>PP,below,"Max hat erzählt, dass ein Pfleger über eine Pipette was verabreicht hat. Was es war, weiß ich aber nicht.","Max hat erzählt, dass ein Pfleger was über eine Pipette verabreicht hat. Was es war, weiß ich aber nicht.",PP>OBJ,OBJ>PP,17:59:06,17:59:16,10431,68
484,t16,test,,COM(O),wh,mit(MOD),test,OBJ>PP,above,"Jan hat erzählt, dass ein Lokaljournalist zusammen mit einem Foto was veröffentlicht hat. Was es war, weiß ich aber nicht.","Jan hat erzählt, dass ein Lokaljournalist was zusammen mit einem Foto veröffentlicht hat. Was es war, weiß ich aber nicht.",PP>OBJ,OBJ>PP,17:44:13,17:44:34,20965,7
484,t09,test,,INSTR,NP,über,test,OBJ>PP,above,"Ich habe gehört, dass ein Schüler über eine Tastatur ein Notebook bedient hat. Was er genau gemacht hat, weiß ich aber nicht.","Ich habe gehört, dass ein Schüler ein Notebook über eine Tastatur bedient hat. Was er genau gemacht hat, weiß ich aber nicht.",PP>OBJ,OBJ>PP,17:44:40,17:44:54,13943,9
484,t14,test,,COM(O),wh,mit(MOD),test,PP>OBJ,below,"Ich habe gehört, dass eine Schuldirektorin zusammen mit einer Einladung was verschickt hat. Was es war, weiß ich aber nicht.","Ich habe gehört, dass eine Schuldirektorin was zusammen mit einer Einladung verschickt hat. Was es war, weiß ich aber nicht.",PP>OBJ,OBJ>PP,17:45:01,17:45:15,13099,11
484,t08,test,,INSTR,NP,über,test,PP>OBJ,below,"Ich habe gehört, dass ein Busfahrer über ein Mikrofon einen Haltestellenausfall angekündigt hat. Welche Busstation betroffen war, weiß ich aber nicht.","Ich habe gehört, dass ein Busfahrer einen Haltestellenausfall über ein Mikrofon angekündigt hat. Welche Busstation betroffen war, weiß ich aber nicht.",PP>OBJ,OBJ>PP,17:45:29,17:45:42,13134,13
484,t17,test,,COM(O),wh,mit(MOD),test,OBJ>PP,below,"Tim hat erzählt, dass eine Haushälterin zusammen mit einem Handtuch was gewaschen hat. Was es war, weiß ich aber nicht.","Tim hat erzählt, dass eine Haushälterin was zusammen mit einem Handtuch gewaschen hat. Was es war, weiß ich aber nicht.",PP>OBJ,OBJ>PP,17:45:50,17:46:01,10760,15
484,t06,test,,INSTR,wh,mittels,test,PP>OBJ,below,"Pia hat erzählt, dass ein Industriearbeiter mittels einer Turbine was angetrieben hat. Was es war, weiß ich aber nicht.","Pia hat erzählt, dass ein Industriearbeiter was mittels einer Turbine angetrieben hat. Was es war, weiß ich aber nicht.",PP>OBJ,OBJ>PP,17:46:12,17:46:21,9507,17
484,t15,test,,COM(O),wh,mit(MOD),test,PP>OBJ,below,"Ich habe gehört, dass ein Abgeordneter zusammen mit einem Finanzplan was vorgelegt hat. Was es war, weiß ich aber nicht.","Ich habe gehört, dass ein Abgeordneter was zusammen mit einem Finanzplan vorgelegt hat. Was es war, weiß ich aber nicht.",PP>OBJ,OBJ>PP,17:46:30,17:46:46,16140,19
484,t18,test,,COM(O),wh,mit(MOD),test,OBJ>PP,above,"Ich habe gehört, dass ein Kurator zusammen mit einem Preisgeld was verliehen hat. Was es war, weiß ich aber nicht.","Ich habe gehört, dass ein Kurator was zusammen mit einem Preisgeld verliehen hat. Was es war, weiß ich aber nicht.",PP>OBJ,OBJ>PP,17:47:04,17:47:17,12646,21
484,t23,test,,COM(O),NP,mit(MOD),test,OBJ>PP,below,"Eva hat erzählt, dass ein Kellner zusammen mit einer Süßspeise ein Heißgetränk serviert hat. Was für eins, weiß ich aber nicht.","Eva hat erzählt, dass ein Kellner ein Heißgetränk zusammen mit einer Süßspeise serviert hat. Was für eins, weiß ich aber nicht.",PP>OBJ,OBJ>PP,17:47:27,17:47:42,15307,23
484,t21,test,,COM(O),NP,mit(MOD),test,PP>OBJ,below,"Ich habe gehört, dass ein Minister zusammen mit einer Urkunde einen Orden überreicht hat. Was für einen, weiß ich aber nicht.","Ich habe gehört, dass ein Minister einen Orden zusammen mit einer Urkunde überreicht hat. Was für einen, weiß ich aber nicht.",PP>OBJ,OBJ>PP,17:48:44,17:49:02,18732,27
484,t19,test,,COM(O),NP,mit(MOD),test,OBJ>PP,below,"Ich habe gehört, dass eine Küchenhilfe zusammen mit einem Schnitzel einen Krapfen angebraten hat. Warum sie das getan hat, weiß ich aber nicht.","Ich habe gehört, dass eine Küchenhilfe einen Krapfen zusammen mit einem Schnitzel angebraten hat. Warum sie das getan hat, weiß ich aber nicht.",PP>OBJ,OBJ>PP,17:49:20,17:49:32,12085,30
484,t11,test,,INSTR,NP,mittels,test,OBJ>PP,above,"Ich habe gehört, dass ein Fußballer mittels eines Attests eine Verletzung nachgewiesen hat. Was er genau hatte, weiß ich aber nicht.","Ich habe gehört, dass ein Fußballer eine Verletzung mittels eines Attests nachgewiesen hat. Was er genau hatte, weiß ich aber nicht.",PP>OBJ,OBJ>PP,17:49:56,17:50:10,14105,33
484,t05,test,,INSTR,wh,mittels,test,PP>OBJ,below,"Ich habe gehört, dass ein Heimkind mittels eines Feuerzeugs was angezündet hat. Was es war, weiß ich aber nicht.","Ich habe gehört, dass ein Heimkind was mittels eines Feuerzeugs angezündet hat. Was es war, weiß ich aber nicht.",PP>OBJ,OBJ>PP,17:50:30,17:50:36,5547,36
484,t20,test,,COM(O),NP,mit(MOD),test,OBJ>PP,above,"Pia hat erzählt, dass ein Tierschützer zusammen mit einem Überweisungsträger eine Broschüre versandt hat. Was für eine, weiß ich aber nicht.","Pia hat erzählt, dass ein Tierschützer eine Broschüre zusammen mit einem Überweisungsträger versandt hat. Was für eine, weiß ich aber nicht.",PP>OBJ,OBJ>PP,17:50:44,17:50:59,14971,38
484,t03,test,,INSTR,wh,über,test,OBJ>PP,below,"Max hat erzählt, dass ein Pfleger über eine Pipette was verabreicht hat. Was es war, weiß ich aber nicht.","Max hat erzählt, dass ein Pfleger was über eine Pipette verabreicht hat. Was es war, weiß ich aber nicht.",PP>OBJ,OBJ>PP,17:51:15,17:51:32,17771,41
484,t22,test,,COM(O),NP,mit(MOD),test,PP>OBJ,below,"Kai hat erzählt, dass ein Antiquitätenhändler zusammen mit einem Gemälde eine Statue verkauft hat. Was für eine, weiß ich aber nicht.","Kai hat erzählt, dass ein Antiquitätenhändler eine Statue zusammen mit einem Gemälde verkauft hat. Was für eine, weiß ich aber nicht.",PP>OBJ,OBJ>PP,17:51:47,17:51:57,10329,44
484,t07,test,,INSTR,NP,über,test,OBJ>PP,below,"Ich habe gehört, dass ein Angestellter über einen Grafikeditor ein Schnittmuster erstellt hat. Was für eins es war, weiß ich aber nicht.","Ich habe gehört, dass ein Angestellter ein Schnittmuster über einen Grafikeditor erstellt hat. Was für eins es war, weiß ich aber nicht.",PP>OBJ,OBJ>PP,17:52:14,17:52:23,8559,47
484,t12,test,,INSTR,NP,mittels,test,OBJ>PP,below,"Jan hat erzählt, dass ein Truppenführer mittels eines Mobiltelefons einen Befehl übermittelt hat. Was für einen, weiß ich aber nicht.","Jan hat erzählt, dass ein Truppenführer einen Befehl mittels eines Mobiltelefons übermittelt hat. Was für einen, weiß ich aber nicht.",PP>OBJ,OBJ>PP,17:52:49,17:52:57,7827,51
484,t02,test,,INSTR,wh,über,test,OBJ>PP,below,"Lea hat erzählt, dass ein Veranstaltungstechniker über einen Computer was gesteuert hat. Was es war, weiß ich aber nicht.","Lea hat erzählt, dass ein Veranstaltungstechniker was über einen Computer gesteuert hat. Was es war, weiß ich aber nicht.",PP>OBJ,OBJ>PP,17:53:13,17:53:24,11049,54
484,t13,test,,COM(O),wh,mit(MOD),test,PP>OBJ,above,"Lea hat erzählt, dass ein Kleinkrimineller zusammen mit einer Stichwaffe was vergraben hat. Was es war, weiß ich aber nicht.","Lea hat erzählt, dass ein Kleinkrimineller was zusammen mit einer Stichwaffe vergraben hat. Was es war, weiß ich aber nicht.",PP>OBJ,OBJ>PP,17:53:48,17:54:06,18553,58
484,t04,test,,INSTR,wh,mittels,test,PP>OBJ,below,"Ich habe gehört, dass ein Wissenschaftler mittels eines Mikroskops was untersucht hat. Was es war, weiß ich aber nicht.","Ich habe gehört, dass ein Wissenschaftler was mittels eines Mikroskops untersucht hat. Was es war, weiß ich aber nicht.",PP>OBJ,OBJ>PP,17:54:22,17:54:30,7652,61
484,t24,test,,COM(O),NP,mit(MOD),test,OBJ>PP,above,"Ich habe gehört, dass ein Hobbykoch zusammen mit einer Knoblauchzehe eine Chilischote püriert hat. Wofür genau, weiß ich aber nicht.","Ich habe gehört, dass ein Hobbykoch eine Chilischote zusammen mit einer Knoblauchzehe püriert hat. Wofür genau, weiß ich aber nicht.",PP>OBJ,OBJ>PP,17:54:47,17:55:01,14070,64
484,t01,test,,INSTR,wh,über,test,OBJ>PP,below,"Ben hat erzählt, dass ein Geschäftsmann über eine Kreditkarte was abgerechnet hat. Was es war, weiß ich aber nicht.","Ben hat erzählt, dass ein Geschäftsmann was über eine Kreditkarte abgerechnet hat. Was es war, weiß ich aber nicht.",PP>OBJ,OBJ>PP,17:55:16,17:55:25,8948,66
