"ADVERBIAL_CLASS","ADVERBIAL_TYPE","ANIMACY_INT_ARG","ANIMACY_OBJ","ANIMACY_SUBJ","ANSWER","ANSWER_CONDITION","ANSWER_CONDITION_HISTORY","ANSWER_CONDITION_NO","ANSWER_HISTORY","ANSWER_POSITION","batchId","batchTitle","CLICK_COUNT_OPTION_0","CLICK_COUNT_OPTION_1","component_repetition_count","componentId","componentPos","componentResultId","componentTitle","date","date_time_begin","date_time_end","itemId","groupResultId","INT_ARG","INT_ARG_TYPE","internal_node_id","ITEM_FUNCTION","ITEM_GROUP","ITEM_SUBGROUP","LIST","OPTION_0_CONDITION","OPTION_0_ITEM","OPTION_0_KEY_CONDITION","OPTION_1_CONDITION","OPTION_1_ITEM","OPTION_1_KEY_CONDITION","ORIENTATION","P","PHENOMENON","PRESENTATION_ORDER","PRESENTATION_ORDER_CONDITION","responses","responses_extended","responses_info","rt","studyCode","studyId","studyResultId","studyTitle","SYNTAX_INT_ARG","time_elapsed","trial_index","trial_type","workerId"
"internal","INSTR","inanimate","inanimate","animate","","condition 3","condition 3",3,"","below",9,"PROLIFIC",1,0,0,76,10,1397,"ForcedChoice","2022-07-01","15:22:15","15:22:22","t09_3_4","null","Feuerzeug","entity","0.0-8.0","test","test","",2,"condition 3","Ich habe gehört, dass ein Heimkind mittels eines Feuerzeugs ein Bett angezündet hat. Warum er das getan hat, weiß ich aber nicht.","","condition 4","Ich habe gehört, dass ein Heimkind ein Bett mittels eines Feuerzeugs angezündet hat. Warum er das getan hat, weiß ich aber nicht.","","SUBJ","MITTELS","advPP","","condition 4 >> condition 3","{""Q0"":{""value"":[""Ich habe gehört, dass ein Heimkind mittels eines Feuerzeugs ein Bett angezündet hat. Warum er das getan hat, weiß ich aber nicht.""],""position"":[1],""option"":[0]}}","{""timeline"":{""pos"":{""Q0"":[1]},""opt"":{""Q0"":[0]}},""click_count"":{""pos"":{""Q0"":{""0"":[0],""1"":[1]}},""opt"":{""Q0"":{""0"":[1],""1"":[0]}}},""selection_events"":{""Q0"":[{""date"":""2022-07-01"",""date_time"":""15:22:21"",""trial_index"":8,""trial_type"":""survey-forced-choice"",""event"":""selection"",""rt"":6092,""time_elapsed"":89472,""id_question"":""Q0"",""id_option"":""Q0:Opt0"",""id_option_position"":1,""selected_value"":0,""selected_label"":""OPTION_0"",""component_repetition_count"":0,""studyCode"":""wrVbx6OnJMt"",""studyId"":""8"",""studyTitle"":""INT_anaphority_FC_new_2"",""batchId"":""9"",""batchTitle"":""PROLIFIC"",""componentId"":""76"",""componentPos"":10,""componentTitle"":""ForcedChoice"",""workerId"":""191"",""studyResultId"":""242"",""componentResultId"":""1397"",""groupResultId"":""null""}]}}","{""Q0"":{""presentation_order"":[""1,0""],""arrangement"":[""vertical""]}}",7259,"wrVbx6OnJMt",8,242,"INT_anaphority_FC_new_2","MOD P DETindef N",90639,8,"survey-forced-choice","191"
"internal","COM(O)","inanimate","inanimate","animate","","condition 3","condition 3",3,"","below",9,"PROLIFIC",1,0,0,76,10,1397,"ForcedChoice","2022-07-01","15:22:41","15:22:52","t15_3_4","null","Finanzplan","entity","0.0-11.0","test","test","",2,"condition 3","Ich habe gehört, dass ein Abgeordneter zusammen mit einem Finanzplan einen Entwurf vorgelegt hat. Was für einen, weiß ich aber nicht.","","condition 4","Ich habe gehört, dass ein Abgeordneter einen Entwurf zusammen mit einem Finanzplan vorgelegt hat. Was für einen, weiß ich aber nicht.","","OBJ","(MOD) MIT","advPP","","condition 4 >> condition 3","{""Q0"":{""value"":[""Ich habe gehört, dass ein Abgeordneter zusammen mit einem Finanzplan einen Entwurf vorgelegt hat. Was für einen, weiß ich aber nicht.""],""position"":[1],""option"":[0]}}","{""timeline"":{""pos"":{""Q0"":[1]},""opt"":{""Q0"":[0]}},""click_count"":{""pos"":{""Q0"":{""0"":[0],""1"":[1]}},""opt"":{""Q0"":{""0"":[1],""1"":[0]}}},""selection_events"":{""Q0"":[{""date"":""2022-07-01"",""date_time"":""15:22:51"",""trial_index"":11,""trial_type"":""survey-forced-choice"",""event"":""selection"",""rt"":9998,""time_elapsed"":118731,""id_question"":""Q0"",""id_option"":""Q0:Opt0"",""id_option_position"":1,""selected_value"":0,""selected_label"":""OPTION_0"",""component_repetition_count"":0,""studyCode"":""wrVbx6OnJMt"",""studyId"":""8"",""studyTitle"":""INT_anaphority_FC_new_2"",""batchId"":""9"",""batchTitle"":""PROLIFIC"",""componentId"":""76"",""componentPos"":10,""componentTitle"":""ForcedChoice"",""workerId"":""191"",""studyResultId"":""242"",""componentResultId"":""1397"",""groupResultId"":""null""}]}}","{""Q0"":{""presentation_order"":[""1,0""],""arrangement"":[""vertical""]}}",11839,"wrVbx6OnJMt",8,242,"INT_anaphority_FC_new_2","MOD P DETindef N",120572,11,"survey-forced-choice","191"
"internal","INSTR","inanimate","inanimate","animate","","condition 1","condition 1",1,"","below",9,"PROLIFIC",1,0,0,76,10,1397,"ForcedChoice","2022-07-01","15:23:08","15:23:15","t12_1_2","null","Mobiltelefon","entity","0.0-14.0","test","test","",2,"condition 1","Jan hat erzählt, dass ein Truppenführer mittels eines Mobiltelefons was übermittelt hat. Was es war, weiß ich aber nicht.","","condition 2","Jan hat erzählt, dass ein Truppenführer was mittels eines Mobiltelefons übermittelt hat. Was es war, weiß ich aber nicht.","","SUBJ","MITTELS","advPP","","condition 2 >> condition 1","{""Q0"":{""value"":[""Jan hat erzählt, dass ein Truppenführer mittels eines Mobiltelefons was übermittelt hat. Was es war, weiß ich aber nicht.""],""position"":[1],""option"":[0]}}","{""timeline"":{""pos"":{""Q0"":[1]},""opt"":{""Q0"":[0]}},""click_count"":{""pos"":{""Q0"":{""0"":[0],""1"":[1]}},""opt"":{""Q0"":{""0"":[1],""1"":[0]}}},""selection_events"":{""Q0"":[{""date"":""2022-07-01"",""date_time"":""15:23:14"",""trial_index"":14,""trial_type"":""survey-forced-choice"",""event"":""selection"",""rt"":5888,""time_elapsed"":142303,""id_question"":""Q0"",""id_option"":""Q0:Opt0"",""id_option_position"":1,""selected_value"":0,""selected_label"":""OPTION_0"",""component_repetition_count"":0,""studyCode"":""wrVbx6OnJMt"",""studyId"":""8"",""studyTitle"":""INT_anaphority_FC_new_2"",""batchId"":""9"",""batchTitle"":""PROLIFIC"",""componentId"":""76"",""componentPos"":10,""componentTitle"":""ForcedChoice"",""workerId"":""191"",""studyResultId"":""242"",""componentResultId"":""1397"",""groupResultId"":""null""}]}}","{""Q0"":{""presentation_order"":[""1,0""],""arrangement"":[""vertical""]}}",6949,"wrVbx6OnJMt",8,242,"INT_anaphority_FC_new_2","MOD P DETindef N",143365,14,"survey-forced-choice","191"
"internal","INSTR","inanimate","inanimate","animate","","condition 1","condition 1",1,"","above",9,"PROLIFIC",1,0,0,76,10,1397,"ForcedChoice","2022-07-01","15:23:32","15:23:44","t06_1_2","null","Pipette","entity","0.0-17.0","test","test","",2,"condition 1","Max hat erzählt, dass ein Pfleger über eine Pipette was verabreicht hat. Was es war, weiß ich aber nicht.","","condition 2","Max hat erzählt, dass ein Pfleger was über eine Pipette verabreicht hat. Was es war, weiß ich aber nicht.","","SUBJ","ÜBER","advPP","","condition 1 >> condition 2","{""Q0"":{""value"":[""Max hat erzählt, dass ein Pfleger über eine Pipette was verabreicht hat. Was es war, weiß ich aber nicht.""],""position"":[0],""option"":[0]}}","{""timeline"":{""pos"":{""Q0"":[0]},""opt"":{""Q0"":[0]}},""click_count"":{""pos"":{""Q0"":{""0"":[1],""1"":[0]}},""opt"":{""Q0"":{""0"":[1],""1"":[0]}}},""selection_events"":{""Q0"":[{""date"":""2022-07-01"",""date_time"":""15:23:43"",""trial_index"":17,""trial_type"":""survey-forced-choice"",""event"":""selection"",""rt"":10954,""time_elapsed"":171237,""id_question"":""Q0"",""id_option"":""Q0:Opt0"",""id_option_position"":0,""selected_value"":0,""selected_label"":""OPTION_0"",""component_repetition_count"":0,""studyCode"":""wrVbx6OnJMt"",""studyId"":""8"",""studyTitle"":""INT_anaphority_FC_new_2"",""batchId"":""9"",""batchTitle"":""PROLIFIC"",""componentId"":""76"",""componentPos"":10,""componentTitle"":""ForcedChoice"",""workerId"":""191"",""studyResultId"":""242"",""componentResultId"":""1397"",""groupResultId"":""null""}]}}","{""Q0"":{""presentation_order"":[""0,1""],""arrangement"":[""vertical""]}}",12058,"wrVbx6OnJMt",8,242,"INT_anaphority_FC_new_2","P DETindef N",172341,17,"survey-forced-choice","191"
"internal","COM(O)","inanimate","inanimate","animate","","condition 4","condition 4",4,"","above",9,"PROLIFIC",0,1,0,76,10,1397,"ForcedChoice","2022-07-01","15:24:08","15:24:24","t13_3_4","null","Stichwaffe","entity","0.0-21.0","test","test","",2,"condition 3","Lea hat erzählt, dass ein Kleinkrimineller zusammen mit einer Stichwaffe ein Kleidungsstück vergraben hat. Wo genau, weiß ich aber nicht.","","condition 4","Lea hat erzählt, dass ein Kleinkrimineller ein Kleidungsstück zusammen mit einer Stichwaffe vergraben hat. Wo genau, weiß ich aber nicht.","","OBJ","(MOD) MIT","advPP","","condition 4 >> condition 3","{""Q0"":{""value"":[""Lea hat erzählt, dass ein Kleinkrimineller ein Kleidungsstück zusammen mit einer Stichwaffe vergraben hat. Wo genau, weiß ich aber nicht.""],""position"":[0],""option"":[1]}}","{""timeline"":{""pos"":{""Q0"":[0]},""opt"":{""Q0"":[1]}},""click_count"":{""pos"":{""Q0"":{""0"":[1],""1"":[0]}},""opt"":{""Q0"":{""0"":[0],""1"":[1]}}},""selection_events"":{""Q0"":[{""date"":""2022-07-01"",""date_time"":""15:24:18"",""trial_index"":21,""trial_type"":""survey-forced-choice"",""event"":""selection"",""rt"":10799,""time_elapsed"":206641,""id_question"":""Q0"",""id_option"":""Q0:Opt1"",""id_option_position"":0,""selected_value"":1,""selected_label"":""OPTION_1"",""component_repetition_count"":0,""studyCode"":""wrVbx6OnJMt"",""studyId"":""8"",""studyTitle"":""INT_anaphority_FC_new_2"",""batchId"":""9"",""batchTitle"":""PROLIFIC"",""componentId"":""76"",""componentPos"":10,""componentTitle"":""ForcedChoice"",""workerId"":""191"",""studyResultId"":""242"",""componentResultId"":""1397"",""groupResultId"":""null""}]}}","{""Q0"":{""presentation_order"":[""1,0""],""arrangement"":[""vertical""]}}",16306,"wrVbx6OnJMt",8,242,"INT_anaphority_FC_new_2","MOD P DETindef N",212148,21,"survey-forced-choice","191"
"internal","COM(O)","inanimate","inanimate","animate","","condition 2","condition 2",2,"","below",9,"PROLIFIC",0,1,0,76,10,1397,"ForcedChoice","2022-07-01","15:24:40","15:24:47","t24_1_2","null","Knoblauchzehe","entity","0.0-24.0","test","test","",2,"condition 1","Ich habe gehört, dass ein Hobbykoch zusammen mit einer Knoblauchzehe was püriert hat. Was es war, weiß ich aber nicht.","","condition 2","Ich habe gehört, dass ein Hobbykoch was zusammen mit einer Knoblauchzehe püriert hat. Was es war, weiß ich aber nicht.","","OBJ","(MOD) MIT","advPP","","condition 1 >> condition 2","{""Q0"":{""value"":[""Ich habe gehört, dass ein Hobbykoch was zusammen mit einer Knoblauchzehe püriert hat. Was es war, weiß ich aber nicht.""],""position"":[1],""option"":[1]}}","{""timeline"":{""pos"":{""Q0"":[1]},""opt"":{""Q0"":[1]}},""click_count"":{""pos"":{""Q0"":{""0"":[0],""1"":[1]}},""opt"":{""Q0"":{""0"":[0],""1"":[1]}}},""selection_events"":{""Q0"":[{""date"":""2022-07-01"",""date_time"":""15:24:45"",""trial_index"":24,""trial_type"":""survey-forced-choice"",""event"":""selection"",""rt"":5728,""time_elapsed"":233623,""id_question"":""Q0"",""id_option"":""Q0:Opt1"",""id_option_position"":1,""selected_value"":1,""selected_label"":""OPTION_1"",""component_repetition_count"":0,""studyCode"":""wrVbx6OnJMt"",""studyId"":""8"",""studyTitle"":""INT_anaphority_FC_new_2"",""batchId"":""9"",""batchTitle"":""PROLIFIC"",""componentId"":""76"",""componentPos"":10,""componentTitle"":""ForcedChoice"",""workerId"":""191"",""studyResultId"":""242"",""componentResultId"":""1397"",""groupResultId"":""null""}]}}","{""Q0"":{""presentation_order"":[""0,1""],""arrangement"":[""vertical""]}}",7036,"wrVbx6OnJMt",8,242,"INT_anaphority_FC_new_2","MOD P DETindef N",234931,24,"survey-forced-choice","191"
"internal","INSTR","inanimate","inanimate","animate","","condition 3","condition 3",3,"","above",9,"PROLIFIC",1,0,0,76,10,1397,"ForcedChoice","2022-07-01","15:24:58","15:25:06","t05_3_4","null","Tastatur","entity","0.0-26.0","test","test","",2,"condition 3","Ich habe gehört, dass ein Schüler über eine Tastatur ein Notebook bedient hat. Was er genau gemacht hat, weiß ich aber nicht.","","condition 4","Ich habe gehört, dass ein Schüler ein Notebook über eine Tastatur bedient hat. Was er genau gemacht hat, weiß ich aber nicht.","","SUBJ","ÜBER","advPP","","condition 3 >> condition 4","{""Q0"":{""value"":[""Ich habe gehört, dass ein Schüler über eine Tastatur ein Notebook bedient hat. Was er genau gemacht hat, weiß ich aber nicht.""],""position"":[0],""option"":[0]}}","{""timeline"":{""pos"":{""Q0"":[0]},""opt"":{""Q0"":[0]}},""click_count"":{""pos"":{""Q0"":{""0"":[1],""1"":[0]}},""opt"":{""Q0"":{""0"":[1],""1"":[0]}}},""selection_events"":{""Q0"":[{""date"":""2022-07-01"",""date_time"":""15:25:04"",""trial_index"":26,""trial_type"":""survey-forced-choice"",""event"":""selection"",""rt"":5992,""time_elapsed"":252390,""id_question"":""Q0"",""id_option"":""Q0:Opt0"",""id_option_position"":0,""selected_value"":0,""selected_label"":""OPTION_0"",""component_repetition_count"":0,""studyCode"":""wrVbx6OnJMt"",""studyId"":""8"",""studyTitle"":""INT_anaphority_FC_new_2"",""batchId"":""9"",""batchTitle"":""PROLIFIC"",""componentId"":""76"",""componentPos"":10,""componentTitle"":""ForcedChoice"",""workerId"":""191"",""studyResultId"":""242"",""componentResultId"":""1397"",""groupResultId"":""null""}]}}","{""Q0"":{""presentation_order"":[""0,1""],""arrangement"":[""vertical""]}}",7376,"wrVbx6OnJMt",8,242,"INT_anaphority_FC_new_2","P DETindef N",253774,26,"survey-forced-choice","191"
"internal","INSTR","inanimate","inanimate","animate","","condition 2","condition 2",2,"","above",9,"PROLIFIC",0,1,0,76,10,1397,"ForcedChoice","2022-07-01","15:25:21","15:25:29","t08_1_2","null","Mikroskop","entity","0.0-29.0","test","test","",2,"condition 1","Ich habe gehört, dass ein Wissenschaftler mittels eines Mikroskops was untersucht hat. Was es war, weiß ich aber nicht.","","condition 2","Ich habe gehört, dass ein Wissenschaftler was mittels eines Mikroskops untersucht hat. Was es war, weiß ich aber nicht.","","SUBJ","MITTELS","advPP","","condition 2 >> condition 1","{""Q0"":{""value"":[""Ich habe gehört, dass ein Wissenschaftler was mittels eines Mikroskops untersucht hat. Was es war, weiß ich aber nicht.""],""position"":[0],""option"":[1]}}","{""timeline"":{""pos"":{""Q0"":[0]},""opt"":{""Q0"":[1]}},""click_count"":{""pos"":{""Q0"":{""0"":[1],""1"":[0]}},""opt"":{""Q0"":{""0"":[0],""1"":[1]}}},""selection_events"":{""Q0"":[{""date"":""2022-07-01"",""date_time"":""15:25:27"",""trial_index"":29,""trial_type"":""survey-forced-choice"",""event"":""selection"",""rt"":6444,""time_elapsed"":275272,""id_question"":""Q0"",""id_option"":""Q0:Opt1"",""id_option_position"":0,""selected_value"":1,""selected_label"":""OPTION_1"",""component_repetition_count"":0,""studyCode"":""wrVbx6OnJMt"",""studyId"":""8"",""studyTitle"":""INT_anaphority_FC_new_2"",""batchId"":""9"",""batchTitle"":""PROLIFIC"",""componentId"":""76"",""componentPos"":10,""componentTitle"":""ForcedChoice"",""workerId"":""191"",""studyResultId"":""242"",""componentResultId"":""1397"",""groupResultId"":""null""}]}}","{""Q0"":{""presentation_order"":[""1,0""],""arrangement"":[""vertical""]}}",8682,"wrVbx6OnJMt",8,242,"INT_anaphority_FC_new_2","MOD P DETindef N",277510,29,"survey-forced-choice","191"
"internal","COM(O)","inanimate","inanimate","animate","","condition 1","condition 1",1,"","below",9,"PROLIFIC",1,0,0,76,10,1397,"ForcedChoice","2022-07-01","15:25:41","15:25:50","t18_1_2","null","Preisgeld","entity","0.0-31.0","test","test","",2,"condition 1","Ich habe gehört, dass ein Kurator zusammen mit einem Preisgeld was verliehen hat. Was es war, weiß ich aber nicht.","","condition 2","Ich habe gehört, dass ein Kurator was zusammen mit einem Preisgeld verliehen hat. Was es war, weiß ich aber nicht.","","OBJ","(MOD) MIT","advPP","","condition 2 >> condition 1","{""Q0"":{""value"":[""Ich habe gehört, dass ein Kurator zusammen mit einem Preisgeld was verliehen hat. Was es war, weiß ich aber nicht.""],""position"":[1],""option"":[0]}}","{""timeline"":{""pos"":{""Q0"":[1]},""opt"":{""Q0"":[0]}},""click_count"":{""pos"":{""Q0"":{""0"":[0],""1"":[1]}},""opt"":{""Q0"":{""0"":[1],""1"":[0]}}},""selection_events"":{""Q0"":[{""date"":""2022-07-01"",""date_time"":""15:25:47"",""trial_index"":31,""trial_type"":""survey-forced-choice"",""event"":""selection"",""rt"":6147,""time_elapsed"":294928,""id_question"":""Q0"",""id_option"":""Q0:Opt0"",""id_option_position"":1,""selected_value"":0,""selected_label"":""OPTION_0"",""component_repetition_count"":0,""studyCode"":""wrVbx6OnJMt"",""studyId"":""8"",""studyTitle"":""INT_anaphority_FC_new_2"",""batchId"":""9"",""batchTitle"":""PROLIFIC"",""componentId"":""76"",""componentPos"":10,""componentTitle"":""ForcedChoice"",""workerId"":""191"",""studyResultId"":""242"",""componentResultId"":""1397"",""groupResultId"":""null""}]}}","{""Q0"":{""presentation_order"":[""1,0""],""arrangement"":[""vertical""]}}",8953,"wrVbx6OnJMt",8,242,"INT_anaphority_FC_new_2","MOD P DETindef N",297734,31,"survey-forced-choice","191"
"internal","INSTR","inanimate","inanimate","animate","","condition 3","condition 3",3,"","above",9,"PROLIFIC",1,0,0,76,10,1397,"ForcedChoice","2022-07-01","15:26:05","15:26:15","t07_3_4","null","Spritze","entity","0.0-34.0","test","test","",2,"condition 3","Eva hat erzählt, dass ein Mediziner mittels einer Spritze eine Substanz injiziert hat. Was für eine es war, weiß ich aber nicht.","","condition 4","Eva hat erzählt, dass ein Mediziner eine Substanz mittels einer Spritze injiziert hat. Was für eine es war, weiß ich aber nicht.","","SUBJ","MITTELS","advPP","","condition 3 >> condition 4","{""Q0"":{""value"":[""Eva hat erzählt, dass ein Mediziner mittels einer Spritze eine Substanz injiziert hat. Was für eine es war, weiß ich aber nicht.""],""position"":[0],""option"":[0]}}","{""timeline"":{""pos"":{""Q0"":[0]},""opt"":{""Q0"":[0]}},""click_count"":{""pos"":{""Q0"":{""0"":[1],""1"":[0]}},""opt"":{""Q0"":{""0"":[1],""1"":[0]}}},""selection_events"":{""Q0"":[{""date"":""2022-07-01"",""date_time"":""15:26:14"",""trial_index"":34,""trial_type"":""survey-forced-choice"",""event"":""selection"",""rt"":9293,""time_elapsed"":322021,""id_question"":""Q0"",""id_option"":""Q0:Opt0"",""id_option_position"":0,""selected_value"":0,""selected_label"":""OPTION_0"",""component_repetition_count"":0,""studyCode"":""wrVbx6OnJMt"",""studyId"":""8"",""studyTitle"":""INT_anaphority_FC_new_2"",""batchId"":""9"",""batchTitle"":""PROLIFIC"",""componentId"":""76"",""componentPos"":10,""componentTitle"":""ForcedChoice"",""workerId"":""191"",""studyResultId"":""242"",""componentResultId"":""1397"",""groupResultId"":""null""}]}}","{""Q0"":{""presentation_order"":[""0,1""],""arrangement"":[""vertical""]}}",10769,"wrVbx6OnJMt",8,242,"INT_anaphority_FC_new_2","MOD P DETindef N",323497,34,"survey-forced-choice","191"
"internal","INSTR","inanimate","inanimate","animate","","condition 3","condition 3",3,"","below",9,"PROLIFIC",1,0,0,76,10,1397,"ForcedChoice","2022-07-01","15:26:25","15:26:35","t03_3_4","null","Computer","entity","0.0-36.0","test","test","",2,"condition 3","Lea hat erzählt, dass ein Veranstaltungstechniker über einen Computer eine Anlage gesteuert hat. Was für eine, weiß ich aber nicht.","","condition 4","Lea hat erzählt, dass ein Veranstaltungstechniker eine Anlage über einen Computer gesteuert hat. Was für eine, weiß ich aber nicht.","","SUBJ","ÜBER","advPP","","condition 4 >> condition 3","{""Q0"":{""value"":[""Lea hat erzählt, dass ein Veranstaltungstechniker über einen Computer eine Anlage gesteuert hat. Was für eine, weiß ich aber nicht.""],""position"":[1],""option"":[0]}}","{""timeline"":{""pos"":{""Q0"":[1]},""opt"":{""Q0"":[0]}},""click_count"":{""pos"":{""Q0"":{""0"":[0],""1"":[1]}},""opt"":{""Q0"":{""0"":[1],""1"":[0]}}},""selection_events"":{""Q0"":[{""date"":""2022-07-01"",""date_time"":""15:26:34"",""trial_index"":36,""trial_type"":""survey-forced-choice"",""event"":""selection"",""rt"":9267,""time_elapsed"":342311,""id_question"":""Q0"",""id_option"":""Q0:Opt0"",""id_option_position"":1,""selected_value"":0,""selected_label"":""OPTION_0"",""component_repetition_count"":0,""studyCode"":""wrVbx6OnJMt"",""studyId"":""8"",""studyTitle"":""INT_anaphority_FC_new_2"",""batchId"":""9"",""batchTitle"":""PROLIFIC"",""componentId"":""76"",""componentPos"":10,""componentTitle"":""ForcedChoice"",""workerId"":""191"",""studyResultId"":""242"",""componentResultId"":""1397"",""groupResultId"":""null""}]}}","{""Q0"":{""presentation_order"":[""1,0""],""arrangement"":[""vertical""]}}",10372,"wrVbx6OnJMt",8,242,"INT_anaphority_FC_new_2","P DETindef N",343416,36,"survey-forced-choice","191"
"internal","INSTR","inanimate","inanimate","animate","","condition 1","condition 1",1,"","below",9,"PROLIFIC",1,0,0,76,10,1397,"ForcedChoice","2022-07-01","15:26:45","15:26:51","t10_1_2","null","Turbine","entity","0.0-38.0","test","test","",2,"condition 1","Pia hat erzählt, dass ein Industriearbeiter mittels einer Turbine was angetrieben hat. Was es war, weiß ich aber nicht.","","condition 2","Pia hat erzählt, dass ein Industriearbeiter was mittels einer Turbine angetrieben hat. Was es war, weiß ich aber nicht.","","SUBJ","MITTELS","advPP","","condition 2 >> condition 1","{""Q0"":{""value"":[""Pia hat erzählt, dass ein Industriearbeiter mittels einer Turbine was angetrieben hat. Was es war, weiß ich aber nicht.""],""position"":[1],""option"":[0]}}","{""timeline"":{""pos"":{""Q0"":[1]},""opt"":{""Q0"":[0]}},""click_count"":{""pos"":{""Q0"":{""0"":[0],""1"":[1]}},""opt"":{""Q0"":{""0"":[1],""1"":[0]}}},""selection_events"":{""Q0"":[{""date"":""2022-07-01"",""date_time"":""15:26:50"",""trial_index"":38,""trial_type"":""survey-forced-choice"",""event"":""selection"",""rt"":5159,""time_elapsed"":358258,""id_question"":""Q0"",""id_option"":""Q0:Opt0"",""id_option_position"":1,""selected_value"":0,""selected_label"":""OPTION_0"",""component_repetition_count"":0,""studyCode"":""wrVbx6OnJMt"",""studyId"":""8"",""studyTitle"":""INT_anaphority_FC_new_2"",""batchId"":""9"",""batchTitle"":""PROLIFIC"",""componentId"":""76"",""componentPos"":10,""componentTitle"":""ForcedChoice"",""workerId"":""191"",""studyResultId"":""242"",""componentResultId"":""1397"",""groupResultId"":""null""}]}}","{""Q0"":{""presentation_order"":[""1,0""],""arrangement"":[""vertical""]}}",6261,"wrVbx6OnJMt",8,242,"INT_anaphority_FC_new_2","MOD P DETindef N",359361,38,"survey-forced-choice","191"
"internal","COM(O)","inanimate","inanimate","animate","","condition 2","condition 2",2,"","above",9,"PROLIFIC",0,1,0,76,10,1397,"ForcedChoice","2022-07-01","15:27:05","15:27:14","t14_1_2","null","Einladung","entity","0.0-40.0","test","test","",2,"condition 1","Ich habe gehört, dass eine Schuldirektorin zusammen mit einer Einladung was verschickt hat. Was es war, weiß ich aber nicht.","","condition 2","Ich habe gehört, dass eine Schuldirektorin was zusammen mit einer Einladung verschickt hat. Was es war, weiß ich aber nicht.","","OBJ","(MOD) MIT","advPP","","condition 2 >> condition 1","{""Q0"":{""value"":[""Ich habe gehört, dass eine Schuldirektorin was zusammen mit einer Einladung verschickt hat. Was es war, weiß ich aber nicht.""],""position"":[0],""option"":[1]}}","{""timeline"":{""pos"":{""Q0"":[0]},""opt"":{""Q0"":[1]}},""click_count"":{""pos"":{""Q0"":{""0"":[1],""1"":[0]}},""opt"":{""Q0"":{""0"":[0],""1"":[1]}}},""selection_events"":{""Q0"":[{""date"":""2022-07-01"",""date_time"":""15:27:13"",""trial_index"":40,""trial_type"":""survey-forced-choice"",""event"":""selection"",""rt"":7373,""time_elapsed"":380820,""id_question"":""Q0"",""id_option"":""Q0:Opt1"",""id_option_position"":0,""selected_value"":1,""selected_label"":""OPTION_1"",""component_repetition_count"":0,""studyCode"":""wrVbx6OnJMt"",""studyId"":""8"",""studyTitle"":""INT_anaphority_FC_new_2"",""batchId"":""9"",""batchTitle"":""PROLIFIC"",""componentId"":""76"",""componentPos"":10,""componentTitle"":""ForcedChoice"",""workerId"":""191"",""studyResultId"":""242"",""componentResultId"":""1397"",""groupResultId"":""null""}]}}","{""Q0"":{""presentation_order"":[""1,0""],""arrangement"":[""vertical""]}}",8494,"wrVbx6OnJMt",8,242,"INT_anaphority_FC_new_2","MOD P DETindef N",381941,40,"survey-forced-choice","191"
"internal","COM(O)","inanimate","inanimate","animate","","condition 1","condition 1",1,"","below",9,"PROLIFIC",1,0,0,76,10,1397,"ForcedChoice","2022-07-01","15:27:22","15:27:32","t20_1_2","null","Überweisungsträger","entity","0.0-42.0","test","test","",2,"condition 1","Pia hat erzählt, dass ein Tierschützer zusammen mit einem Überweisungsträger was versandt hat. Was es war, weiß ich aber nicht.","","condition 2","Pia hat erzählt, dass ein Tierschützer was zusammen mit einem Überweisungsträger versandt hat. Was es war, weiß ich aber nicht.","","OBJ","(MOD) MIT","advPP","","condition 2 >> condition 1","{""Q0"":{""value"":[""Pia hat erzählt, dass ein Tierschützer zusammen mit einem Überweisungsträger was versandt hat. Was es war, weiß ich aber nicht.""],""position"":[1],""option"":[0]}}","{""timeline"":{""pos"":{""Q0"":[1]},""opt"":{""Q0"":[0]}},""click_count"":{""pos"":{""Q0"":{""0"":[0],""1"":[1]}},""opt"":{""Q0"":{""0"":[1],""1"":[0]}}},""selection_events"":{""Q0"":[{""date"":""2022-07-01"",""date_time"":""15:27:30"",""trial_index"":42,""trial_type"":""survey-forced-choice"",""event"":""selection"",""rt"":7849,""time_elapsed"":398394,""id_question"":""Q0"",""id_option"":""Q0:Opt0"",""id_option_position"":1,""selected_value"":0,""selected_label"":""OPTION_0"",""component_repetition_count"":0,""studyCode"":""wrVbx6OnJMt"",""studyId"":""8"",""studyTitle"":""INT_anaphority_FC_new_2"",""batchId"":""9"",""batchTitle"":""PROLIFIC"",""componentId"":""76"",""componentPos"":10,""componentTitle"":""ForcedChoice"",""workerId"":""191"",""studyResultId"":""242"",""componentResultId"":""1397"",""groupResultId"":""null""}]}}","{""Q0"":{""presentation_order"":[""1,0""],""arrangement"":[""vertical""]}}",9608,"wrVbx6OnJMt",8,242,"INT_anaphority_FC_new_2","MOD P DETindef N",400153,42,"survey-forced-choice","191"
"internal","INSTR","inanimate","inanimate","animate","","condition 2","condition 2",2,"","above",9,"PROLIFIC",0,1,0,76,10,1397,"ForcedChoice","2022-07-01","15:27:44","15:27:49","t04_1_2","null","Mikrofon","entity","0.0-45.0","test","test","",2,"condition 1","Ich habe gehört, dass ein Busfahrer über ein Mikrofon was angekündigt hat. Was es war, weiß ich aber nicht.","","condition 2","Ich habe gehört, dass ein Busfahrer was über ein Mikrofon angekündigt hat. Was es war, weiß ich aber nicht.","","SUBJ","ÜBER","advPP","","condition 2 >> condition 1","{""Q0"":{""value"":[""Ich habe gehört, dass ein Busfahrer was über ein Mikrofon angekündigt hat. Was es war, weiß ich aber nicht.""],""position"":[0],""option"":[1]}}","{""timeline"":{""pos"":{""Q0"":[0]},""opt"":{""Q0"":[1]}},""click_count"":{""pos"":{""Q0"":{""0"":[1],""1"":[0]}},""opt"":{""Q0"":{""0"":[0],""1"":[1]}}},""selection_events"":{""Q0"":[{""date"":""2022-07-01"",""date_time"":""15:27:48"",""trial_index"":45,""trial_type"":""survey-forced-choice"",""event"":""selection"",""rt"":4041,""time_elapsed"":416336,""id_question"":""Q0"",""id_option"":""Q0:Opt1"",""id_option_position"":0,""selected_value"":1,""selected_label"":""OPTION_1"",""component_repetition_count"":0,""studyCode"":""wrVbx6OnJMt"",""studyId"":""8"",""studyTitle"":""INT_anaphority_FC_new_2"",""batchId"":""9"",""batchTitle"":""PROLIFIC"",""componentId"":""76"",""componentPos"":10,""componentTitle"":""ForcedChoice"",""workerId"":""191"",""studyResultId"":""242"",""componentResultId"":""1397"",""groupResultId"":""null""}]}}","{""Q0"":{""presentation_order"":[""1,0""],""arrangement"":[""vertical""]}}",5223,"wrVbx6OnJMt",8,242,"INT_anaphority_FC_new_2","P DETindef N",417518,45,"survey-forced-choice","191"
"internal","COM(O)","inanimate","inanimate","animate","","condition 4","condition 4",4,"","below",9,"PROLIFIC",0,1,0,76,10,1397,"ForcedChoice","2022-07-01","15:28:01","15:28:09","t19_3_4","null","Schnitzel","entity","0.0-48.0","test","test","",2,"condition 3","Ich habe gehört, dass eine Küchenhilfe zusammen mit einem Schnitzel einen Krapfen angebraten hat. Warum sie das getan hat, weiß ich aber nicht.","","condition 4","Ich habe gehört, dass eine Küchenhilfe einen Krapfen zusammen mit einem Schnitzel angebraten hat. Warum sie das getan hat, weiß ich aber nicht.","","OBJ","(MOD) MIT","advPP","","condition 3 >> condition 4","{""Q0"":{""value"":[""Ich habe gehört, dass eine Küchenhilfe einen Krapfen zusammen mit einem Schnitzel angebraten hat. Warum sie das getan hat, weiß ich aber nicht.""],""position"":[1],""option"":[1]}}","{""timeline"":{""pos"":{""Q0"":[1]},""opt"":{""Q0"":[1]}},""click_count"":{""pos"":{""Q0"":{""0"":[0],""1"":[1]}},""opt"":{""Q0"":{""0"":[0],""1"":[1]}}},""selection_events"":{""Q0"":[{""date"":""2022-07-01"",""date_time"":""15:28:08"",""trial_index"":48,""trial_type"":""survey-forced-choice"",""event"":""selection"",""rt"":6309,""time_elapsed"":435908,""id_question"":""Q0"",""id_option"":""Q0:Opt1"",""id_option_position"":1,""selected_value"":1,""selected_label"":""OPTION_1"",""component_repetition_count"":0,""studyCode"":""wrVbx6OnJMt"",""studyId"":""8"",""studyTitle"":""INT_anaphority_FC_new_2"",""batchId"":""9"",""batchTitle"":""PROLIFIC"",""componentId"":""76"",""componentPos"":10,""componentTitle"":""ForcedChoice"",""workerId"":""191"",""studyResultId"":""242"",""componentResultId"":""1397"",""groupResultId"":""null""}]}}","{""Q0"":{""presentation_order"":[""0,1""],""arrangement"":[""vertical""]}}",7926,"wrVbx6OnJMt",8,242,"INT_anaphority_FC_new_2","MOD P DETindef N",437525,48,"survey-forced-choice","191"
"internal","COM(O)","inanimate","inanimate","animate","","condition 4","condition 4",4,"","below",9,"PROLIFIC",0,1,0,76,10,1397,"ForcedChoice","2022-07-01","15:28:17","15:28:25","t17_3_4","null","Handtuch","entity","0.0-50.0","test","test","",2,"condition 3","Tim hat erzählt, dass eine Haushälterin zusammen mit einem Handtuch ein Hemd gewaschen hat. Warum sie das getan hat, weiß ich aber nicht.","","condition 4","Tim hat erzählt, dass eine Haushälterin ein Hemd zusammen mit einem Handtuch gewaschen hat. Warum sie das getan hat, weiß ich aber nicht.","","OBJ","(MOD) MIT","advPP","","condition 3 >> condition 4","{""Q0"":{""value"":[""Tim hat erzählt, dass eine Haushälterin ein Hemd zusammen mit einem Handtuch gewaschen hat. Warum sie das getan hat, weiß ich aber nicht.""],""position"":[1],""option"":[1]}}","{""timeline"":{""pos"":{""Q0"":[1]},""opt"":{""Q0"":[1]}},""click_count"":{""pos"":{""Q0"":{""0"":[0],""1"":[1]}},""opt"":{""Q0"":{""0"":[0],""1"":[1]}}},""selection_events"":{""Q0"":[{""date"":""2022-07-01"",""date_time"":""15:28:24"",""trial_index"":50,""trial_type"":""survey-forced-choice"",""event"":""selection"",""rt"":6735,""time_elapsed"":452255,""id_question"":""Q0"",""id_option"":""Q0:Opt1"",""id_option_position"":1,""selected_value"":1,""selected_label"":""OPTION_1"",""component_repetition_count"":0,""studyCode"":""wrVbx6OnJMt"",""studyId"":""8"",""studyTitle"":""INT_anaphority_FC_new_2"",""batchId"":""9"",""batchTitle"":""PROLIFIC"",""componentId"":""76"",""componentPos"":10,""componentTitle"":""ForcedChoice"",""workerId"":""191"",""studyResultId"":""242"",""componentResultId"":""1397"",""groupResultId"":""null""}]}}","{""Q0"":{""presentation_order"":[""0,1""],""arrangement"":[""vertical""]}}",7793,"wrVbx6OnJMt",8,242,"INT_anaphority_FC_new_2","MOD P DETindef N",453313,50,"survey-forced-choice","191"
"internal","COM(O)","inanimate","inanimate","animate","","condition 2","condition 2",2,"","above",9,"PROLIFIC",0,1,0,76,10,1397,"ForcedChoice","2022-07-01","15:28:50","15:28:59","t16_1_2","null","Foto","entity","0.0-52.0","test","test","",2,"condition 1","Jan hat erzählt, dass ein Lokaljournalist zusammen mit einem Foto was veröffentlicht hat. Was es war, weiß ich aber nicht.","","condition 2","Jan hat erzählt, dass ein Lokaljournalist was zusammen mit einem Foto veröffentlicht hat. Was es war, weiß ich aber nicht.","","OBJ","(MOD) MIT","advPP","","condition 2 >> condition 1","{""Q0"":{""value"":[""Jan hat erzählt, dass ein Lokaljournalist was zusammen mit einem Foto veröffentlicht hat. Was es war, weiß ich aber nicht.""],""position"":[0],""option"":[1]}}","{""timeline"":{""pos"":{""Q0"":[0]},""opt"":{""Q0"":[1]}},""click_count"":{""pos"":{""Q0"":{""0"":[1],""1"":[0]}},""opt"":{""Q0"":{""0"":[0],""1"":[1]}}},""selection_events"":{""Q0"":[{""date"":""2022-07-01"",""date_time"":""15:28:58"",""trial_index"":52,""trial_type"":""survey-forced-choice"",""event"":""selection"",""rt"":8126,""time_elapsed"":485878,""id_question"":""Q0"",""id_option"":""Q0:Opt1"",""id_option_position"":0,""selected_value"":1,""selected_label"":""OPTION_1"",""component_repetition_count"":0,""studyCode"":""wrVbx6OnJMt"",""studyId"":""8"",""studyTitle"":""INT_anaphority_FC_new_2"",""batchId"":""9"",""batchTitle"":""PROLIFIC"",""componentId"":""76"",""componentPos"":10,""componentTitle"":""ForcedChoice"",""workerId"":""191"",""studyResultId"":""242"",""componentResultId"":""1397"",""groupResultId"":""null""}]}}","{""Q0"":{""presentation_order"":[""1,0""],""arrangement"":[""vertical""]}}",9142,"wrVbx6OnJMt",8,242,"INT_anaphority_FC_new_2","MOD P DETindef N",486894,52,"survey-forced-choice","191"
"internal","INSTR","inanimate","inanimate","animate","","condition 1","condition 2 >> condition 1",1,"","above",9,"PROLIFIC",1,1,0,76,10,1397,"ForcedChoice","2022-07-01","15:29:12","15:29:28","t02_1_2","null","Kreditkarte","entity","0.0-54.0","test","test","",2,"condition 1","Ben hat erzählt, dass ein Geschäftsmann über eine Kreditkarte was abgerechnet hat. Was es war, weiß ich aber nicht.","","condition 2","Ben hat erzählt, dass ein Geschäftsmann was über eine Kreditkarte abgerechnet hat. Was es war, weiß ich aber nicht.","","SUBJ","ÜBER","advPP","","condition 1 >> condition 2","{""Q0"":{""value"":[""Ben hat erzählt, dass ein Geschäftsmann über eine Kreditkarte was abgerechnet hat. Was es war, weiß ich aber nicht.""],""position"":[0],""option"":[0]}}","{""timeline"":{""pos"":{""Q0"":[1,0]},""opt"":{""Q0"":[1,0]}},""click_count"":{""pos"":{""Q0"":{""0"":[1],""1"":[1]}},""opt"":{""Q0"":{""0"":[1],""1"":[1]}}},""selection_events"":{""Q0"":[{""date"":""2022-07-01"",""date_time"":""15:29:17"",""trial_index"":54,""trial_type"":""survey-forced-choice"",""event"":""selection"",""rt"":4666,""time_elapsed"":504806,""id_question"":""Q0"",""id_option"":""Q0:Opt1"",""id_option_position"":1,""selected_value"":1,""selected_label"":""OPTION_1"",""component_repetition_count"":0,""studyCode"":""wrVbx6OnJMt"",""studyId"":""8"",""studyTitle"":""INT_anaphority_FC_new_2"",""batchId"":""9"",""batchTitle"":""PROLIFIC"",""componentId"":""76"",""componentPos"":10,""componentTitle"":""ForcedChoice"",""workerId"":""191"",""studyResultId"":""242"",""componentResultId"":""1397"",""groupResultId"":""null""},{""date"":""2022-07-01"",""date_time"":""15:29:24"",""trial_index"":54,""trial_type"":""survey-forced-choice"",""event"":""selection"",""rt"":12118,""time_elapsed"":512258,""id_question"":""Q0"",""id_option"":""Q0:Opt0"",""id_option_position"":0,""selected_value"":0,""selected_label"":""OPTION_0"",""selected_value_previous"":1,""component_repetition_count"":0,""studyCode"":""wrVbx6OnJMt"",""studyId"":""8"",""studyTitle"":""INT_anaphority_FC_new_2"",""batchId"":""9"",""batchTitle"":""PROLIFIC"",""componentId"":""76"",""componentPos"":10,""componentTitle"":""ForcedChoice"",""workerId"":""191"",""studyResultId"":""242"",""componentResultId"":""1397"",""groupResultId"":""null""}]}}","{""Q0"":{""presentation_order"":[""0,1""],""arrangement"":[""vertical""]}}",15866,"wrVbx6OnJMt",8,242,"INT_anaphority_FC_new_2","P DETindef N",516007,54,"survey-forced-choice","191"
"internal","INSTR","inanimate","inanimate","animate","","condition 3","condition 4 >> condition 3",3,"","below",9,"PROLIFIC",1,1,0,76,10,1397,"ForcedChoice","2022-07-01","15:29:44","15:29:52","t11_3_4","null","Attest","entity","0.0-57.0","test","test","",2,"condition 3","Ich habe gehört, dass ein Fußballer mittels eines Attests eine Verletzung nachgewiesen hat. Was für eine, weiß ich aber nicht.","","condition 4","Ich habe gehört, dass ein Fußballer eine Verletzung mittels eines Attests nachgewiesen hat. Was für eine, weiß ich aber nicht.","","SUBJ","MITTELS","advPP","","condition 4 >> condition 3","{""Q0"":{""value"":[""Ich habe gehört, dass ein Fußballer mittels eines Attests eine Verletzung nachgewiesen hat. Was für eine, weiß ich aber nicht.""],""position"":[1],""option"":[0]}}","{""timeline"":{""pos"":{""Q0"":[0,1]},""opt"":{""Q0"":[1,0]}},""click_count"":{""pos"":{""Q0"":{""0"":[1],""1"":[1]}},""opt"":{""Q0"":{""0"":[1],""1"":[1]}}},""selection_events"":{""Q0"":[{""date"":""2022-07-01"",""date_time"":""15:29:49"",""trial_index"":57,""trial_type"":""survey-forced-choice"",""event"":""selection"",""rt"":5749,""time_elapsed"":537572,""id_question"":""Q0"",""id_option"":""Q0:Opt1"",""id_option_position"":0,""selected_value"":1,""selected_label"":""OPTION_1"",""component_repetition_count"":0,""studyCode"":""wrVbx6OnJMt"",""studyId"":""8"",""studyTitle"":""INT_anaphority_FC_new_2"",""batchId"":""9"",""batchTitle"":""PROLIFIC"",""componentId"":""76"",""componentPos"":10,""componentTitle"":""ForcedChoice"",""workerId"":""191"",""studyResultId"":""242"",""componentResultId"":""1397"",""groupResultId"":""null""},{""date"":""2022-07-01"",""date_time"":""15:29:51"",""trial_index"":57,""trial_type"":""survey-forced-choice"",""event"":""selection"",""rt"":7191,""time_elapsed"":539014,""id_question"":""Q0"",""id_option"":""Q0:Opt0"",""id_option_position"":1,""selected_value"":0,""selected_label"":""OPTION_0"",""selected_value_previous"":1,""component_repetition_count"":0,""studyCode"":""wrVbx6OnJMt"",""studyId"":""8"",""studyTitle"":""INT_anaphority_FC_new_2"",""batchId"":""9"",""batchTitle"":""PROLIFIC"",""componentId"":""76"",""componentPos"":10,""componentTitle"":""ForcedChoice"",""workerId"":""191"",""studyResultId"":""242"",""componentResultId"":""1397"",""groupResultId"":""null""}]}}","{""Q0"":{""presentation_order"":[""1,0""],""arrangement"":[""vertical""]}}",8245,"wrVbx6OnJMt",8,242,"INT_anaphority_FC_new_2","MOD P DETindef N",540069,57,"survey-forced-choice","191"
"internal","INSTR","inanimate","inanimate","animate","","condition 3","condition 3",3,"","above",9,"PROLIFIC",1,0,0,76,10,1397,"ForcedChoice","2022-07-01","15:30:16","15:30:24","t01_3_4","null","Grafikeditor","entity","0.0-60.0","test","test","",2,"condition 3","Ich habe gehört, dass ein Angestellter über einen Grafikeditor ein Schnittmuster erstellt hat. Was für eins es war, weiß ich aber nicht.","","condition 4","Ich habe gehört, dass ein Angestellter ein Schnittmuster über einen Grafikeditor erstellt hat. Was für eins es war, weiß ich aber nicht.","","SUBJ","ÜBER","advPP","","condition 3 >> condition 4","{""Q0"":{""value"":[""Ich habe gehört, dass ein Angestellter über einen Grafikeditor ein Schnittmuster erstellt hat. Was für eins es war, weiß ich aber nicht.""],""position"":[0],""option"":[0]}}","{""timeline"":{""pos"":{""Q0"":[0]},""opt"":{""Q0"":[0]}},""click_count"":{""pos"":{""Q0"":{""0"":[1],""1"":[0]}},""opt"":{""Q0"":{""0"":[1],""1"":[0]}}},""selection_events"":{""Q0"":[{""date"":""2022-07-01"",""date_time"":""15:30:21"",""trial_index"":60,""trial_type"":""survey-forced-choice"",""event"":""selection"",""rt"":5054,""time_elapsed"":569047,""id_question"":""Q0"",""id_option"":""Q0:Opt0"",""id_option_position"":0,""selected_value"":0,""selected_label"":""OPTION_0"",""component_repetition_count"":0,""studyCode"":""wrVbx6OnJMt"",""studyId"":""8"",""studyTitle"":""INT_anaphority_FC_new_2"",""batchId"":""9"",""batchTitle"":""PROLIFIC"",""componentId"":""76"",""componentPos"":10,""componentTitle"":""ForcedChoice"",""workerId"":""191"",""studyResultId"":""242"",""componentResultId"":""1397"",""groupResultId"":""null""}]}}","{""Q0"":{""presentation_order"":[""0,1""],""arrangement"":[""vertical""]}}",7853,"wrVbx6OnJMt",8,242,"INT_anaphority_FC_new_2","P DETindef N",571846,60,"survey-forced-choice","191"
"internal","COM(O)","inanimate","inanimate","animate","","condition 4","condition 4",4,"","below",9,"PROLIFIC",0,1,0,76,10,1397,"ForcedChoice","2022-07-01","15:30:41","15:30:52","t21_3_4","null","Urkunde","entity","0.0-63.0","test","test","",2,"condition 3","Ich habe gehört, dass ein Minister zusammen mit einer Urkunde einen Orden überreicht hat. Was für einen, weiß ich aber nicht.","","condition 4","Ich habe gehört, dass ein Minister einen Orden zusammen mit einer Urkunde überreicht hat. Was für einen, weiß ich aber nicht.","","OBJ","(MOD) MIT","advPP","","condition 3 >> condition 4","{""Q0"":{""value"":[""Ich habe gehört, dass ein Minister einen Orden zusammen mit einer Urkunde überreicht hat. Was für einen, weiß ich aber nicht.""],""position"":[1],""option"":[1]}}","{""timeline"":{""pos"":{""Q0"":[1]},""opt"":{""Q0"":[1]}},""click_count"":{""pos"":{""Q0"":{""0"":[0],""1"":[1]}},""opt"":{""Q0"":{""0"":[0],""1"":[1]}}},""selection_events"":{""Q0"":[{""date"":""2022-07-01"",""date_time"":""15:30:51"",""trial_index"":63,""trial_type"":""survey-forced-choice"",""event"":""selection"",""rt"":9552,""time_elapsed"":599237,""id_question"":""Q0"",""id_option"":""Q0:Opt1"",""id_option_position"":1,""selected_value"":1,""selected_label"":""OPTION_1"",""component_repetition_count"":0,""studyCode"":""wrVbx6OnJMt"",""studyId"":""8"",""studyTitle"":""INT_anaphority_FC_new_2"",""batchId"":""9"",""batchTitle"":""PROLIFIC"",""componentId"":""76"",""componentPos"":10,""componentTitle"":""ForcedChoice"",""workerId"":""191"",""studyResultId"":""242"",""componentResultId"":""1397"",""groupResultId"":""null""}]}}","{""Q0"":{""presentation_order"":[""0,1""],""arrangement"":[""vertical""]}}",10581,"wrVbx6OnJMt",8,242,"INT_anaphority_FC_new_2","MOD P DETindef N",600266,63,"survey-forced-choice","191"
"internal","COM(O)","inanimate","inanimate","animate","","condition 3","condition 4 >> condition 3",3,"","below",9,"PROLIFIC",1,1,0,76,10,1397,"ForcedChoice","2022-07-01","15:31:08","15:31:22","t23_3_4","null","Süßspeise","entity","0.0-65.0","test","test","",2,"condition 3","Eva hat erzählt, dass ein Kellner zusammen mit einer Süßspeise ein Heißgetränk serviert hat. Was für eins, weiß ich aber nicht.","","condition 4","Eva hat erzählt, dass ein Kellner ein Heißgetränk zusammen mit einer Süßspeise serviert hat. Was für eins, weiß ich aber nicht.","","OBJ","(MOD) MIT","advPP","","condition 4 >> condition 3","{""Q0"":{""value"":[""Eva hat erzählt, dass ein Kellner zusammen mit einer Süßspeise ein Heißgetränk serviert hat. Was für eins, weiß ich aber nicht.""],""position"":[1],""option"":[0]}}","{""timeline"":{""pos"":{""Q0"":[0,1]},""opt"":{""Q0"":[1,0]}},""click_count"":{""pos"":{""Q0"":{""0"":[1],""1"":[1]}},""opt"":{""Q0"":{""0"":[1],""1"":[1]}}},""selection_events"":{""Q0"":[{""date"":""2022-07-01"",""date_time"":""15:31:14"",""trial_index"":65,""trial_type"":""survey-forced-choice"",""event"":""selection"",""rt"":6400,""time_elapsed"":622384,""id_question"":""Q0"",""id_option"":""Q0:Opt1"",""id_option_position"":0,""selected_value"":1,""selected_label"":""OPTION_1"",""component_repetition_count"":0,""studyCode"":""wrVbx6OnJMt"",""studyId"":""8"",""studyTitle"":""INT_anaphority_FC_new_2"",""batchId"":""9"",""batchTitle"":""PROLIFIC"",""componentId"":""76"",""componentPos"":10,""componentTitle"":""ForcedChoice"",""workerId"":""191"",""studyResultId"":""242"",""componentResultId"":""1397"",""groupResultId"":""null""},{""date"":""2022-07-01"",""date_time"":""15:31:21"",""trial_index"":65,""trial_type"":""survey-forced-choice"",""event"":""selection"",""rt"":13496,""time_elapsed"":629480,""id_question"":""Q0"",""id_option"":""Q0:Opt0"",""id_option_position"":1,""selected_value"":0,""selected_label"":""OPTION_0"",""selected_value_previous"":1,""component_repetition_count"":0,""studyCode"":""wrVbx6OnJMt"",""studyId"":""8"",""studyTitle"":""INT_anaphority_FC_new_2"",""batchId"":""9"",""batchTitle"":""PROLIFIC"",""componentId"":""76"",""componentPos"":10,""componentTitle"":""ForcedChoice"",""workerId"":""191"",""studyResultId"":""242"",""componentResultId"":""1397"",""groupResultId"":""null""}]}}","{""Q0"":{""presentation_order"":[""1,0""],""arrangement"":[""vertical""]}}",14588,"wrVbx6OnJMt",8,242,"INT_anaphority_FC_new_2","MOD P DETindef N",630572,65,"survey-forced-choice","191"
"internal","COM(O)","inanimate","inanimate","animate","","condition 2","condition 1 >> condition 2",2,"","below",9,"PROLIFIC",1,1,0,76,10,1397,"ForcedChoice","2022-07-01","15:31:29","15:31:39","t22_1_2","null","Gemälde","entity","0.0-67.0","test","test","",2,"condition 1","Kai hat erzählt, dass ein Antiquitätenhändler zusammen mit einem Gemälde was verkauft hat. Was es war, weiß ich aber nicht.","","condition 2","Kai hat erzählt, dass ein Antiquitätenhändler was zusammen mit einem Gemälde verkauft hat. Was es war, weiß ich aber nicht.","","OBJ","(MOD) MIT","advPP","","condition 1 >> condition 2","{""Q0"":{""value"":[""Kai hat erzählt, dass ein Antiquitätenhändler was zusammen mit einem Gemälde verkauft hat. Was es war, weiß ich aber nicht.""],""position"":[1],""option"":[1]}}","{""timeline"":{""pos"":{""Q0"":[0,1]},""opt"":{""Q0"":[0,1]}},""click_count"":{""pos"":{""Q0"":{""0"":[1],""1"":[1]}},""opt"":{""Q0"":{""0"":[1],""1"":[1]}}},""selection_events"":{""Q0"":[{""date"":""2022-07-01"",""date_time"":""15:31:36"",""trial_index"":67,""trial_type"":""survey-forced-choice"",""event"":""selection"",""rt"":6695,""time_elapsed"":643987,""id_question"":""Q0"",""id_option"":""Q0:Opt0"",""id_option_position"":0,""selected_value"":0,""selected_label"":""OPTION_0"",""component_repetition_count"":0,""studyCode"":""wrVbx6OnJMt"",""studyId"":""8"",""studyTitle"":""INT_anaphority_FC_new_2"",""batchId"":""9"",""batchTitle"":""PROLIFIC"",""componentId"":""76"",""componentPos"":10,""componentTitle"":""ForcedChoice"",""workerId"":""191"",""studyResultId"":""242"",""componentResultId"":""1397"",""groupResultId"":""null""},{""date"":""2022-07-01"",""date_time"":""15:31:38"",""trial_index"":67,""trial_type"":""survey-forced-choice"",""event"":""selection"",""rt"":8463,""time_elapsed"":645755,""id_question"":""Q0"",""id_option"":""Q0:Opt1"",""id_option_position"":1,""selected_value"":1,""selected_label"":""OPTION_1"",""selected_value_previous"":0,""component_repetition_count"":0,""studyCode"":""wrVbx6OnJMt"",""studyId"":""8"",""studyTitle"":""INT_anaphority_FC_new_2"",""batchId"":""9"",""batchTitle"":""PROLIFIC"",""componentId"":""76"",""componentPos"":10,""componentTitle"":""ForcedChoice"",""workerId"":""191"",""studyResultId"":""242"",""componentResultId"":""1397"",""groupResultId"":""null""}]}}","{""Q0"":{""presentation_order"":[""0,1""],""arrangement"":[""vertical""]}}",9443,"wrVbx6OnJMt",8,242,"INT_anaphority_FC_new_2","MOD P DETindef N",646736,67,"survey-forced-choice","191"
"internal","COM(O)","inanimate","inanimate","animate","","condition 3","condition 3",3,"","below",9,"PROLIFIC",1,0,0,76,10,1414,"ForcedChoice","2022-07-01","15:40:55","15:41:09","t14_3_4","null","Einladung","entity","0.0-7.0","test","test","",1,"condition 3","Ich habe gehört, dass eine Schuldirektorin zusammen mit einer Einladung einen Bericht verschickt hat. Was für einen, weiß ich aber nicht.","","condition 4","Ich habe gehört, dass eine Schuldirektorin einen Bericht zusammen mit einer Einladung verschickt hat. Was für einen, weiß ich aber nicht.","","OBJ","(MOD) MIT","advPP","","condition 4 >> condition 3","{""Q0"":{""value"":[""Ich habe gehört, dass eine Schuldirektorin zusammen mit einer Einladung einen Bericht verschickt hat. Was für einen, weiß ich aber nicht.""],""position"":[1],""option"":[0]}}","{""timeline"":{""pos"":{""Q0"":[1]},""opt"":{""Q0"":[0]}},""click_count"":{""pos"":{""Q0"":{""0"":[0],""1"":[1]}},""opt"":{""Q0"":{""0"":[1],""1"":[0]}}},""selection_events"":{""Q0"":[{""date"":""2022-07-01"",""date_time"":""15:41:08"",""trial_index"":7,""trial_type"":""survey-forced-choice"",""event"":""selection"",""rt"":13244,""time_elapsed"":92946,""id_question"":""Q0"",""id_option"":""Q0:Opt0"",""id_option_position"":1,""selected_value"":0,""selected_label"":""OPTION_0"",""component_repetition_count"":0,""studyCode"":""wrVbx6OnJMt"",""studyId"":""8"",""studyTitle"":""INT_anaphority_FC_new_2"",""batchId"":""9"",""batchTitle"":""PROLIFIC"",""componentId"":""76"",""componentPos"":10,""componentTitle"":""ForcedChoice"",""workerId"":""194"",""studyResultId"":""245"",""componentResultId"":""1414"",""groupResultId"":""null""}]}}","{""Q0"":{""presentation_order"":[""1,0""],""arrangement"":[""vertical""]}}",14212,"wrVbx6OnJMt",8,245,"INT_anaphority_FC_new_2","MOD P DETindef N",93913,7,"survey-forced-choice","194"
"internal","INSTR","inanimate","inanimate","animate","","condition 2","condition 2",2,"","below",9,"PROLIFIC",0,1,0,76,10,1414,"ForcedChoice","2022-07-01","15:41:29","15:41:40","t01_1_2","null","Grafikeditor","entity","0.0-10.0","test","test","",1,"condition 1","Ich habe gehört, dass ein Angestellter über einen Grafikeditor was erstellt hat. Was es war, weiß ich aber nicht.","","condition 2","Ich habe gehört, dass ein Angestellter was über einen Grafikeditor erstellt hat. Was es war, weiß ich aber nicht.","","SUBJ","ÜBER","advPP","","condition 1 >> condition 2","{""Q0"":{""value"":[""Ich habe gehört, dass ein Angestellter was über einen Grafikeditor erstellt hat. Was es war, weiß ich aber nicht.""],""position"":[1],""option"":[1]}}","{""timeline"":{""pos"":{""Q0"":[1]},""opt"":{""Q0"":[1]}},""click_count"":{""pos"":{""Q0"":{""0"":[0],""1"":[1]}},""opt"":{""Q0"":{""0"":[0],""1"":[1]}}},""selection_events"":{""Q0"":[{""date"":""2022-07-01"",""date_time"":""15:41:38"",""trial_index"":10,""trial_type"":""survey-forced-choice"",""event"":""selection"",""rt"":8634,""time_elapsed"":122513,""id_question"":""Q0"",""id_option"":""Q0:Opt1"",""id_option_position"":1,""selected_value"":1,""selected_label"":""OPTION_1"",""component_repetition_count"":0,""studyCode"":""wrVbx6OnJMt"",""studyId"":""8"",""studyTitle"":""INT_anaphority_FC_new_2"",""batchId"":""9"",""batchTitle"":""PROLIFIC"",""componentId"":""76"",""componentPos"":10,""componentTitle"":""ForcedChoice"",""workerId"":""194"",""studyResultId"":""245"",""componentResultId"":""1414"",""groupResultId"":""null""}]}}","{""Q0"":{""presentation_order"":[""0,1""],""arrangement"":[""vertical""]}}",10684,"wrVbx6OnJMt",8,245,"INT_anaphority_FC_new_2","P DETindef N",124563,10,"survey-forced-choice","194"
"internal","INSTR","inanimate","inanimate","animate","","condition 2","condition 2",2,"","above",9,"PROLIFIC",0,1,0,76,10,1414,"ForcedChoice","2022-07-01","15:42:00","15:42:13","t03_1_2","null","Computer","entity","0.0-12.0","test","test","",1,"condition 1","Lea hat erzählt, dass ein Veranstaltungstechniker über einen Computer was gesteuert hat. Was es war, weiß ich aber nicht.","","condition 2","Lea hat erzählt, dass ein Veranstaltungstechniker was über einen Computer gesteuert hat. Was es war, weiß ich aber nicht.","","SUBJ","ÜBER","advPP","","condition 2 >> condition 1","{""Q0"":{""value"":[""Lea hat erzählt, dass ein Veranstaltungstechniker was über einen Computer gesteuert hat. Was es war, weiß ich aber nicht.""],""position"":[0],""option"":[1]}}","{""timeline"":{""pos"":{""Q0"":[0]},""opt"":{""Q0"":[1]}},""click_count"":{""pos"":{""Q0"":{""0"":[1],""1"":[0]}},""opt"":{""Q0"":{""0"":[0],""1"":[1]}}},""selection_events"":{""Q0"":[{""date"":""2022-07-01"",""date_time"":""15:42:10"",""trial_index"":12,""trial_type"":""survey-forced-choice"",""event"":""selection"",""rt"":9645,""time_elapsed"":154342,""id_question"":""Q0"",""id_option"":""Q0:Opt1"",""id_option_position"":0,""selected_value"":1,""selected_label"":""OPTION_1"",""component_repetition_count"":0,""studyCode"":""wrVbx6OnJMt"",""studyId"":""8"",""studyTitle"":""INT_anaphority_FC_new_2"",""batchId"":""9"",""batchTitle"":""PROLIFIC"",""componentId"":""76"",""componentPos"":10,""componentTitle"":""ForcedChoice"",""workerId"":""194"",""studyResultId"":""245"",""componentResultId"":""1414"",""groupResultId"":""null""}]}}","{""Q0"":{""presentation_order"":[""1,0""],""arrangement"":[""vertical""]}}",13297,"wrVbx6OnJMt",8,245,"INT_anaphority_FC_new_2","P DETindef N",157994,12,"survey-forced-choice","194"
"internal","COM(O)","inanimate","inanimate","animate","","condition 1","condition 1",1,"","above",9,"PROLIFIC",1,0,0,76,10,1414,"ForcedChoice","2022-07-01","15:42:49","15:43:05","t17_1_2","null","Handtuch","entity","0.0-15.0","test","test","",1,"condition 1","Tim hat erzählt, dass eine Haushälterin zusammen mit einem Handtuch was gewaschen hat. Was es war, weiß ich aber nicht.","","condition 2","Tim hat erzählt, dass eine Haushälterin was zusammen mit einem Handtuch gewaschen hat. Was es war, weiß ich aber nicht.","","OBJ","(MOD) MIT","advPP","","condition 1 >> condition 2","{""Q0"":{""value"":[""Tim hat erzählt, dass eine Haushälterin zusammen mit einem Handtuch was gewaschen hat. Was es war, weiß ich aber nicht.""],""position"":[0],""option"":[0]}}","{""timeline"":{""pos"":{""Q0"":[0]},""opt"":{""Q0"":[0]}},""click_count"":{""pos"":{""Q0"":{""0"":[1],""1"":[0]}},""opt"":{""Q0"":{""0"":[1],""1"":[0]}}},""selection_events"":{""Q0"":[{""date"":""2022-07-01"",""date_time"":""15:43:02"",""trial_index"":15,""trial_type"":""survey-forced-choice"",""event"":""selection"",""rt"":12260,""time_elapsed"":206470,""id_question"":""Q0"",""id_option"":""Q0:Opt0"",""id_option_position"":0,""selected_value"":0,""selected_label"":""OPTION_0"",""component_repetition_count"":0,""studyCode"":""wrVbx6OnJMt"",""studyId"":""8"",""studyTitle"":""INT_anaphority_FC_new_2"",""batchId"":""9"",""batchTitle"":""PROLIFIC"",""componentId"":""76"",""componentPos"":10,""componentTitle"":""ForcedChoice"",""workerId"":""194"",""studyResultId"":""245"",""componentResultId"":""1414"",""groupResultId"":""null""}]}}","{""Q0"":{""presentation_order"":[""0,1""],""arrangement"":[""vertical""]}}",15860,"wrVbx6OnJMt",8,245,"INT_anaphority_FC_new_2","MOD P DETindef N",210071,15,"survey-forced-choice","194"
"internal","INSTR","inanimate","inanimate","animate","","condition 3","condition 3",3,"","above",9,"PROLIFIC",1,0,0,76,10,1414,"ForcedChoice","2022-07-01","15:43:13","15:43:29","t12_3_4","null","Mobiltelefon","entity","0.0-17.0","test","test","",1,"condition 3","Jan hat erzählt, dass ein Truppenführer mittels eines Mobiltelefons einen Befehl übermittelt hat. Was für einen, weiß ich aber nicht.","","condition 4","Jan hat erzählt, dass ein Truppenführer einen Befehl mittels eines Mobiltelefons übermittelt hat. Was für einen, weiß ich aber nicht.","","SUBJ","MITTELS","advPP","","condition 3 >> condition 4","{""Q0"":{""value"":[""Jan hat erzählt, dass ein Truppenführer mittels eines Mobiltelefons einen Befehl übermittelt hat. Was für einen, weiß ich aber nicht.""],""position"":[0],""option"":[0]}}","{""timeline"":{""pos"":{""Q0"":[0]},""opt"":{""Q0"":[0]}},""click_count"":{""pos"":{""Q0"":{""0"":[1],""1"":[0]}},""opt"":{""Q0"":{""0"":[1],""1"":[0]}}},""selection_events"":{""Q0"":[{""date"":""2022-07-01"",""date_time"":""15:43:22"",""trial_index"":17,""trial_type"":""survey-forced-choice"",""event"":""selection"",""rt"":8333,""time_elapsed"":226474,""id_question"":""Q0"",""id_option"":""Q0:Opt0"",""id_option_position"":0,""selected_value"":0,""selected_label"":""OPTION_0"",""component_repetition_count"":0,""studyCode"":""wrVbx6OnJMt"",""studyId"":""8"",""studyTitle"":""INT_anaphority_FC_new_2"",""batchId"":""9"",""batchTitle"":""PROLIFIC"",""componentId"":""76"",""componentPos"":10,""componentTitle"":""ForcedChoice"",""workerId"":""194"",""studyResultId"":""245"",""componentResultId"":""1414"",""groupResultId"":""null""}]}}","{""Q0"":{""presentation_order"":[""0,1""],""arrangement"":[""vertical""]}}",15303,"wrVbx6OnJMt",8,245,"INT_anaphority_FC_new_2","MOD P DETindef N",233444,17,"survey-forced-choice","194"
"internal","INSTR","inanimate","inanimate","animate","","condition 1","condition 1",1,"","above",9,"PROLIFIC",1,0,0,76,10,1414,"ForcedChoice","2022-07-01","15:43:48","15:44:04","t05_1_2","null","Tastatur","entity","0.0-19.0","test","test","",1,"condition 1","Ich habe gehört, dass ein Schüler über eine Tastatur was bedient hat. Was es war, weiß ich aber nicht.","","condition 2","Ich habe gehört, dass ein Schüler was über eine Tastatur bedient hat. Was es war, weiß ich aber nicht.","","SUBJ","ÜBER","advPP","","condition 1 >> condition 2","{""Q0"":{""value"":[""Ich habe gehört, dass ein Schüler über eine Tastatur was bedient hat. Was es war, weiß ich aber nicht.""],""position"":[0],""option"":[0]}}","{""timeline"":{""pos"":{""Q0"":[0]},""opt"":{""Q0"":[0]}},""click_count"":{""pos"":{""Q0"":{""0"":[1],""1"":[0]}},""opt"":{""Q0"":{""0"":[1],""1"":[0]}}},""selection_events"":{""Q0"":[{""date"":""2022-07-01"",""date_time"":""15:44:03"",""trial_index"":19,""trial_type"":""survey-forced-choice"",""event"":""selection"",""rt"":14531,""time_elapsed"":267557,""id_question"":""Q0"",""id_option"":""Q0:Opt0"",""id_option_position"":0,""selected_value"":0,""selected_label"":""OPTION_0"",""component_repetition_count"":0,""studyCode"":""wrVbx6OnJMt"",""studyId"":""8"",""studyTitle"":""INT_anaphority_FC_new_2"",""batchId"":""9"",""batchTitle"":""PROLIFIC"",""componentId"":""76"",""componentPos"":10,""componentTitle"":""ForcedChoice"",""workerId"":""194"",""studyResultId"":""245"",""componentResultId"":""1414"",""groupResultId"":""null""}]}}","{""Q0"":{""presentation_order"":[""0,1""],""arrangement"":[""vertical""]}}",15964,"wrVbx6OnJMt",8,245,"INT_anaphority_FC_new_2","P DETindef N",268990,19,"survey-forced-choice","194"
"internal","COM(O)","inanimate","inanimate","animate","","condition 1","condition 1",1,"","below",9,"PROLIFIC",1,0,0,76,10,1414,"ForcedChoice","2022-07-01","15:44:24","15:44:42","t21_1_2","null","Urkunde","entity","0.0-23.0","test","test","",1,"condition 1","Ich habe gehört, dass ein Minister zusammen mit einer Urkunde was überreicht hat. Was es war, weiß ich aber nicht.","","condition 2","Ich habe gehört, dass ein Minister was zusammen mit einer Urkunde überreicht hat. Was es war, weiß ich aber nicht.","","OBJ","(MOD) MIT","advPP","","condition 2 >> condition 1","{""Q0"":{""value"":[""Ich habe gehört, dass ein Minister zusammen mit einer Urkunde was überreicht hat. Was es war, weiß ich aber nicht.""],""position"":[1],""option"":[0]}}","{""timeline"":{""pos"":{""Q0"":[1]},""opt"":{""Q0"":[0]}},""click_count"":{""pos"":{""Q0"":{""0"":[0],""1"":[1]}},""opt"":{""Q0"":{""0"":[1],""1"":[0]}}},""selection_events"":{""Q0"":[{""date"":""2022-07-01"",""date_time"":""15:44:40"",""trial_index"":23,""trial_type"":""survey-forced-choice"",""event"":""selection"",""rt"":15899,""time_elapsed"":304724,""id_question"":""Q0"",""id_option"":""Q0:Opt0"",""id_option_position"":1,""selected_value"":0,""selected_label"":""OPTION_0"",""component_repetition_count"":0,""studyCode"":""wrVbx6OnJMt"",""studyId"":""8"",""studyTitle"":""INT_anaphority_FC_new_2"",""batchId"":""9"",""batchTitle"":""PROLIFIC"",""componentId"":""76"",""componentPos"":10,""componentTitle"":""ForcedChoice"",""workerId"":""194"",""studyResultId"":""245"",""componentResultId"":""1414"",""groupResultId"":""null""}]}}","{""Q0"":{""presentation_order"":[""1,0""],""arrangement"":[""vertical""]}}",17533,"wrVbx6OnJMt",8,245,"INT_anaphority_FC_new_2","MOD P DETindef N",306359,23,"survey-forced-choice","194"
"internal","INSTR","inanimate","inanimate","animate","","condition 4","condition 4",4,"","above",9,"PROLIFIC",0,1,0,76,10,1414,"ForcedChoice","2022-07-01","15:45:07","15:45:19","t06_3_4","null","Pipette","entity","0.0-26.0","test","test","",1,"condition 3","Max hat erzählt, dass ein Pfleger über eine Pipette ein Arzneimittel verabreicht hat. Was für eins, weiß ich aber nicht.","","condition 4","Max hat erzählt, dass ein Pfleger ein Arzneimittel über eine Pipette verabreicht hat. Was für eins, weiß ich aber nicht.","","SUBJ","ÜBER","advPP","","condition 4 >> condition 3","{""Q0"":{""value"":[""Max hat erzählt, dass ein Pfleger ein Arzneimittel über eine Pipette verabreicht hat. Was für eins, weiß ich aber nicht.""],""position"":[0],""option"":[1]}}","{""timeline"":{""pos"":{""Q0"":[0]},""opt"":{""Q0"":[1]}},""click_count"":{""pos"":{""Q0"":{""0"":[1],""1"":[0]}},""opt"":{""Q0"":{""0"":[0],""1"":[1]}}},""selection_events"":{""Q0"":[{""date"":""2022-07-01"",""date_time"":""15:45:13"",""trial_index"":26,""trial_type"":""survey-forced-choice"",""event"":""selection"",""rt"":5849,""time_elapsed"":337822,""id_question"":""Q0"",""id_option"":""Q0:Opt1"",""id_option_position"":0,""selected_value"":1,""selected_label"":""OPTION_1"",""component_repetition_count"":0,""studyCode"":""wrVbx6OnJMt"",""studyId"":""8"",""studyTitle"":""INT_anaphority_FC_new_2"",""batchId"":""9"",""batchTitle"":""PROLIFIC"",""componentId"":""76"",""componentPos"":10,""componentTitle"":""ForcedChoice"",""workerId"":""194"",""studyResultId"":""245"",""componentResultId"":""1414"",""groupResultId"":""null""}]}}","{""Q0"":{""presentation_order"":[""1,0""],""arrangement"":[""vertical""]}}",11396,"wrVbx6OnJMt",8,245,"INT_anaphority_FC_new_2","P DETindef N",343370,26,"survey-forced-choice","194"
"internal","INSTR","inanimate","inanimate","animate","","condition 4","condition 4",4,"","above",9,"PROLIFIC",0,1,0,76,10,1414,"ForcedChoice","2022-07-01","15:45:41","15:45:52","t02_3_4","null","Kreditkarte","entity","0.0-29.0","test","test","",1,"condition 3","Ben hat erzählt, dass ein Geschäftsmann über eine Kreditkarte ein Firmenessen abgerechnet hat. Ob er ein Trinkgeld gegeben hat, weiß ich aber nicht.","","condition 4","Ben hat erzählt, dass ein Geschäftsmann ein Firmenessen über eine Kreditkarte abgerechnet hat. Ob er ein Trinkgeld gegeben hat, weiß ich aber nicht.","","SUBJ","ÜBER","advPP","","condition 4 >> condition 3","{""Q0"":{""value"":[""Ben hat erzählt, dass ein Geschäftsmann ein Firmenessen über eine Kreditkarte abgerechnet hat. Ob er ein Trinkgeld gegeben hat, weiß ich aber nicht.""],""position"":[0],""option"":[1]}}","{""timeline"":{""pos"":{""Q0"":[0]},""opt"":{""Q0"":[1]}},""click_count"":{""pos"":{""Q0"":{""0"":[1],""1"":[0]}},""opt"":{""Q0"":{""0"":[0],""1"":[1]}}},""selection_events"":{""Q0"":[{""date"":""2022-07-01"",""date_time"":""15:45:46"",""trial_index"":29,""trial_type"":""survey-forced-choice"",""event"":""selection"",""rt"":5164,""time_elapsed"":370670,""id_question"":""Q0"",""id_option"":""Q0:Opt1"",""id_option_position"":0,""selected_value"":1,""selected_label"":""OPTION_1"",""component_repetition_count"":0,""studyCode"":""wrVbx6OnJMt"",""studyId"":""8"",""studyTitle"":""INT_anaphority_FC_new_2"",""batchId"":""9"",""batchTitle"":""PROLIFIC"",""componentId"":""76"",""componentPos"":10,""componentTitle"":""ForcedChoice"",""workerId"":""194"",""studyResultId"":""245"",""componentResultId"":""1414"",""groupResultId"":""null""}]}}","{""Q0"":{""presentation_order"":[""1,0""],""arrangement"":[""vertical""]}}",10961,"wrVbx6OnJMt",8,245,"INT_anaphority_FC_new_2","P DETindef N",376467,29,"survey-forced-choice","194"
"internal","COM(O)","inanimate","inanimate","animate","","condition 4","condition 4",4,"","above",9,"PROLIFIC",0,1,0,76,10,1414,"ForcedChoice","2022-07-01","15:46:19","15:46:31","t24_3_4","null","Knoblauchzehe","entity","0.0-32.0","test","test","",1,"condition 3","Ich habe gehört, dass ein Hobbykoch zusammen mit einer Knoblauchzehe eine Chilischote püriert hat. Wofür genau, weiß ich aber nicht.","","condition 4","Ich habe gehört, dass ein Hobbykoch eine Chilischote zusammen mit einer Knoblauchzehe püriert hat. Wofür genau, weiß ich aber nicht.","","OBJ","(MOD) MIT","advPP","","condition 4 >> condition 3","{""Q0"":{""value"":[""Ich habe gehört, dass ein Hobbykoch eine Chilischote zusammen mit einer Knoblauchzehe püriert hat. Wofür genau, weiß ich aber nicht.""],""position"":[0],""option"":[1]}}","{""timeline"":{""pos"":{""Q0"":[0]},""opt"":{""Q0"":[1]}},""click_count"":{""pos"":{""Q0"":{""0"":[1],""1"":[0]}},""opt"":{""Q0"":{""0"":[0],""1"":[1]}}},""selection_events"":{""Q0"":[{""date"":""2022-07-01"",""date_time"":""15:46:26"",""trial_index"":32,""trial_type"":""survey-forced-choice"",""event"":""selection"",""rt"":7128,""time_elapsed"":410666,""id_question"":""Q0"",""id_option"":""Q0:Opt1"",""id_option_position"":0,""selected_value"":1,""selected_label"":""OPTION_1"",""component_repetition_count"":0,""studyCode"":""wrVbx6OnJMt"",""studyId"":""8"",""studyTitle"":""INT_anaphority_FC_new_2"",""batchId"":""9"",""batchTitle"":""PROLIFIC"",""componentId"":""76"",""componentPos"":10,""componentTitle"":""ForcedChoice"",""workerId"":""194"",""studyResultId"":""245"",""componentResultId"":""1414"",""groupResultId"":""null""}]}}","{""Q0"":{""presentation_order"":[""1,0""],""arrangement"":[""vertical""]}}",12247,"wrVbx6OnJMt",8,245,"INT_anaphority_FC_new_2","MOD P DETindef N",415784,32,"survey-forced-choice","194"
"internal","INSTR","inanimate","inanimate","animate","","condition 4","condition 4",4,"","above",9,"PROLIFIC",0,1,0,76,10,1414,"ForcedChoice","2022-07-01","15:46:51","15:47:04","t08_3_4","null","Mikroskop","entity","0.0-35.0","test","test","",1,"condition 3","Ich habe gehört, dass ein Wissenschaftler mittels eines Mikroskops eine Probe untersucht hat. Was für eine es war, weiß ich aber nicht.","","condition 4","Ich habe gehört, dass ein Wissenschaftler eine Probe mittels eines Mikroskops untersucht hat. Was für eine es war, weiß ich aber nicht.","","SUBJ","MITTELS","advPP","","condition 4 >> condition 3","{""Q0"":{""value"":[""Ich habe gehört, dass ein Wissenschaftler eine Probe mittels eines Mikroskops untersucht hat. Was für eine es war, weiß ich aber nicht.""],""position"":[0],""option"":[1]}}","{""timeline"":{""pos"":{""Q0"":[0]},""opt"":{""Q0"":[1]}},""click_count"":{""pos"":{""Q0"":{""0"":[1],""1"":[0]}},""opt"":{""Q0"":{""0"":[0],""1"":[1]}}},""selection_events"":{""Q0"":[{""date"":""2022-07-01"",""date_time"":""15:47:03"",""trial_index"":35,""trial_type"":""survey-forced-choice"",""event"":""selection"",""rt"":11681,""time_elapsed"":447632,""id_question"":""Q0"",""id_option"":""Q0:Opt1"",""id_option_position"":0,""selected_value"":1,""selected_label"":""OPTION_1"",""component_repetition_count"":0,""studyCode"":""wrVbx6OnJMt"",""studyId"":""8"",""studyTitle"":""INT_anaphority_FC_new_2"",""batchId"":""9"",""batchTitle"":""PROLIFIC"",""componentId"":""76"",""componentPos"":10,""componentTitle"":""ForcedChoice"",""workerId"":""194"",""studyResultId"":""245"",""componentResultId"":""1414"",""groupResultId"":""null""}]}}","{""Q0"":{""presentation_order"":[""1,0""],""arrangement"":[""vertical""]}}",12629,"wrVbx6OnJMt",8,245,"INT_anaphority_FC_new_2","MOD P DETindef N",448580,35,"survey-forced-choice","194"
"internal","INSTR","inanimate","inanimate","animate","","condition 1","condition 1",1,"","below",9,"PROLIFIC",1,0,0,76,10,1414,"ForcedChoice","2022-07-01","15:47:14","15:47:25","t07_1_2","null","Spritze","entity","0.0-37.0","test","test","",1,"condition 1","Eva hat erzählt, dass ein Mediziner mittels einer Spritze was injiziert hat. Was es war, weiß ich aber nicht.","","condition 2","Eva hat erzählt, dass ein Mediziner was mittels einer Spritze injiziert hat. Was es war, weiß ich aber nicht.","","SUBJ","MITTELS","advPP","","condition 2 >> condition 1","{""Q0"":{""value"":[""Eva hat erzählt, dass ein Mediziner mittels einer Spritze was injiziert hat. Was es war, weiß ich aber nicht.""],""position"":[1],""option"":[0]}}","{""timeline"":{""pos"":{""Q0"":[1]},""opt"":{""Q0"":[0]}},""click_count"":{""pos"":{""Q0"":{""0"":[0],""1"":[1]}},""opt"":{""Q0"":{""0"":[1],""1"":[0]}}},""selection_events"":{""Q0"":[{""date"":""2022-07-01"",""date_time"":""15:47:23"",""trial_index"":37,""trial_type"":""survey-forced-choice"",""event"":""selection"",""rt"":8449,""time_elapsed"":467581,""id_question"":""Q0"",""id_option"":""Q0:Opt0"",""id_option_position"":1,""selected_value"":0,""selected_label"":""OPTION_0"",""component_repetition_count"":0,""studyCode"":""wrVbx6OnJMt"",""studyId"":""8"",""studyTitle"":""INT_anaphority_FC_new_2"",""batchId"":""9"",""batchTitle"":""PROLIFIC"",""componentId"":""76"",""componentPos"":10,""componentTitle"":""ForcedChoice"",""workerId"":""194"",""studyResultId"":""245"",""componentResultId"":""1414"",""groupResultId"":""null""}]}}","{""Q0"":{""presentation_order"":[""1,0""],""arrangement"":[""vertical""]}}",10464,"wrVbx6OnJMt",8,245,"INT_anaphority_FC_new_2","MOD P DETindef N",469597,37,"survey-forced-choice","194"
"internal","COM(O)","inanimate","inanimate","animate","","condition 2","condition 2",2,"","below",9,"PROLIFIC",0,1,0,76,10,1414,"ForcedChoice","2022-07-01","15:47:42","15:47:51","t19_1_2","null","Schnitzel","entity","0.0-40.0","test","test","",1,"condition 1","Ich habe gehört, dass eine Küchenhilfe zusammen mit einem Schnitzel was angebraten hat. Was es war, weiß ich aber nicht.","","condition 2","Ich habe gehört, dass eine Küchenhilfe was zusammen mit einem Schnitzel angebraten hat. Was es war, weiß ich aber nicht.","","OBJ","(MOD) MIT","advPP","","condition 1 >> condition 2","{""Q0"":{""value"":[""Ich habe gehört, dass eine Küchenhilfe was zusammen mit einem Schnitzel angebraten hat. Was es war, weiß ich aber nicht.""],""position"":[1],""option"":[1]}}","{""timeline"":{""pos"":{""Q0"":[1]},""opt"":{""Q0"":[1]}},""click_count"":{""pos"":{""Q0"":{""0"":[0],""1"":[1]}},""opt"":{""Q0"":{""0"":[0],""1"":[1]}}},""selection_events"":{""Q0"":[{""date"":""2022-07-01"",""date_time"":""15:47:49"",""trial_index"":40,""trial_type"":""survey-forced-choice"",""event"":""selection"",""rt"":6947,""time_elapsed"":494062,""id_question"":""Q0"",""id_option"":""Q0:Opt1"",""id_option_position"":1,""selected_value"":1,""selected_label"":""OPTION_1"",""component_repetition_count"":0,""studyCode"":""wrVbx6OnJMt"",""studyId"":""8"",""studyTitle"":""INT_anaphority_FC_new_2"",""batchId"":""9"",""batchTitle"":""PROLIFIC"",""componentId"":""76"",""componentPos"":10,""componentTitle"":""ForcedChoice"",""workerId"":""194"",""studyResultId"":""245"",""componentResultId"":""1414"",""groupResultId"":""null""}]}}","{""Q0"":{""presentation_order"":[""0,1""],""arrangement"":[""vertical""]}}",9147,"wrVbx6OnJMt",8,245,"INT_anaphority_FC_new_2","MOD P DETindef N",496263,40,"survey-forced-choice","194"
"internal","INSTR","inanimate","inanimate","animate","","condition 4","condition 4",4,"","below",9,"PROLIFIC",0,1,0,76,10,1414,"ForcedChoice","2022-07-01","15:48:16","15:48:26","t10_3_4","null","Turbine","entity","0.0-43.0","test","test","",1,"condition 3","Pia hat erzählt, dass ein Industriearbeiter mittels einer Turbine eine Maschine angetrieben hat. Welche genau, weiß ich aber nicht.","","condition 4","Pia hat erzählt, dass ein Industriearbeiter eine Maschine mittels einer Turbine angetrieben hat. Welche genau, weiß ich aber nicht.","","SUBJ","MITTELS","advPP","","condition 3 >> condition 4","{""Q0"":{""value"":[""Pia hat erzählt, dass ein Industriearbeiter eine Maschine mittels einer Turbine angetrieben hat. Welche genau, weiß ich aber nicht.""],""position"":[1],""option"":[1]}}","{""timeline"":{""pos"":{""Q0"":[1]},""opt"":{""Q0"":[1]}},""click_count"":{""pos"":{""Q0"":{""0"":[0],""1"":[1]}},""opt"":{""Q0"":{""0"":[0],""1"":[1]}}},""selection_events"":{""Q0"":[{""date"":""2022-07-01"",""date_time"":""15:48:23"",""trial_index"":43,""trial_type"":""survey-forced-choice"",""event"":""selection"",""rt"":6782,""time_elapsed"":527794,""id_question"":""Q0"",""id_option"":""Q0:Opt1"",""id_option_position"":1,""selected_value"":1,""selected_label"":""OPTION_1"",""component_repetition_count"":0,""studyCode"":""wrVbx6OnJMt"",""studyId"":""8"",""studyTitle"":""INT_anaphority_FC_new_2"",""batchId"":""9"",""batchTitle"":""PROLIFIC"",""componentId"":""76"",""componentPos"":10,""componentTitle"":""ForcedChoice"",""workerId"":""194"",""studyResultId"":""245"",""componentResultId"":""1414"",""groupResultId"":""null""}]}}","{""Q0"":{""presentation_order"":[""0,1""],""arrangement"":[""vertical""]}}",9464,"wrVbx6OnJMt",8,245,"INT_anaphority_FC_new_2","MOD P DETindef N",530476,43,"survey-forced-choice","194"
"internal","COM(O)","inanimate","inanimate","animate","","condition 4","condition 4",4,"","above",9,"PROLIFIC",0,1,0,76,10,1414,"ForcedChoice","2022-07-01","15:48:39","15:48:56","t18_3_4","null","Preisgeld","entity","0.0-45.0","test","test","",1,"condition 3","Ich habe gehört, dass ein Kurator zusammen mit einem Preisgeld eine Auszeichnung verliehen hat. Was für eine es war, weiß ich aber nicht.","","condition 4","Ich habe gehört, dass ein Kurator eine Auszeichnung zusammen mit einem Preisgeld verliehen hat. Was für eine es war, weiß ich aber nicht.","","OBJ","(MOD) MIT","advPP","","condition 4 >> condition 3","{""Q0"":{""value"":[""Ich habe gehört, dass ein Kurator eine Auszeichnung zusammen mit einem Preisgeld verliehen hat. Was für eine es war, weiß ich aber nicht.""],""position"":[0],""option"":[1]}}","{""timeline"":{""pos"":{""Q0"":[0]},""opt"":{""Q0"":[1]}},""click_count"":{""pos"":{""Q0"":{""0"":[1],""1"":[0]}},""opt"":{""Q0"":{""0"":[0],""1"":[1]}}},""selection_events"":{""Q0"":[{""date"":""2022-07-01"",""date_time"":""15:48:54"",""trial_index"":45,""trial_type"":""survey-forced-choice"",""event"":""selection"",""rt"":15062,""time_elapsed"":558423,""id_question"":""Q0"",""id_option"":""Q0:Opt1"",""id_option_position"":0,""selected_value"":1,""selected_label"":""OPTION_1"",""component_repetition_count"":0,""studyCode"":""wrVbx6OnJMt"",""studyId"":""8"",""studyTitle"":""INT_anaphority_FC_new_2"",""batchId"":""9"",""batchTitle"":""PROLIFIC"",""componentId"":""76"",""componentPos"":10,""componentTitle"":""ForcedChoice"",""workerId"":""194"",""studyResultId"":""245"",""componentResultId"":""1414"",""groupResultId"":""null""}]}}","{""Q0"":{""presentation_order"":[""1,0""],""arrangement"":[""vertical""]}}",17630,"wrVbx6OnJMt",8,245,"INT_anaphority_FC_new_2","MOD P DETindef N",560991,45,"survey-forced-choice","194"
"internal","COM(O)","inanimate","inanimate","animate","","condition 3","condition 3 >> condition 4 >> condition 3",3,"","above",9,"PROLIFIC",2,1,0,76,10,1414,"ForcedChoice","2022-07-01","15:49:46","15:50:04","t16_3_4","null","Foto","entity","0.0-49.0","test","test","",1,"condition 3","Jan hat erzählt, dass ein Lokaljournalist zusammen mit einem Foto eine Teilnehmerliste veröffentlicht hat. Was für eine es war, weiß ich aber nicht.","","condition 4","Jan hat erzählt, dass ein Lokaljournalist eine Teilnehmerliste zusammen mit einem Foto veröffentlicht hat. Was für eine es war, weiß ich aber nicht.","","OBJ","(MOD) MIT","advPP","","condition 3 >> condition 4","{""Q0"":{""value"":[""Jan hat erzählt, dass ein Lokaljournalist zusammen mit einem Foto eine Teilnehmerliste veröffentlicht hat. Was für eine es war, weiß ich aber nicht.""],""position"":[0],""option"":[0]}}","{""timeline"":{""pos"":{""Q0"":[0,1,0]},""opt"":{""Q0"":[0,1,0]}},""click_count"":{""pos"":{""Q0"":{""0"":[2],""1"":[1]}},""opt"":{""Q0"":{""0"":[2],""1"":[1]}}},""selection_events"":{""Q0"":[{""date"":""2022-07-01"",""date_time"":""15:49:55"",""trial_index"":49,""trial_type"":""survey-forced-choice"",""event"":""selection"",""rt"":8951,""time_elapsed"":619321,""id_question"":""Q0"",""id_option"":""Q0:Opt0"",""id_option_position"":0,""selected_value"":0,""selected_label"":""OPTION_0"",""component_repetition_count"":0,""studyCode"":""wrVbx6OnJMt"",""studyId"":""8"",""studyTitle"":""INT_anaphority_FC_new_2"",""batchId"":""9"",""batchTitle"":""PROLIFIC"",""componentId"":""76"",""componentPos"":10,""componentTitle"":""ForcedChoice"",""workerId"":""194"",""studyResultId"":""245"",""componentResultId"":""1414"",""groupResultId"":""null""},{""date"":""2022-07-01"",""date_time"":""15:50:00"",""trial_index"":49,""trial_type"":""survey-forced-choice"",""event"":""selection"",""rt"":14550,""time_elapsed"":624920,""id_question"":""Q0"",""id_option"":""Q0:Opt1"",""id_option_position"":1,""selected_value"":1,""selected_label"":""OPTION_1"",""selected_value_previous"":0,""component_repetition_count"":0,""studyCode"":""wrVbx6OnJMt"",""studyId"":""8"",""studyTitle"":""INT_anaphority_FC_new_2"",""batchId"":""9"",""batchTitle"":""PROLIFIC"",""componentId"":""76"",""componentPos"":10,""componentTitle"":""ForcedChoice"",""workerId"":""194"",""studyResultId"":""245"",""componentResultId"":""1414"",""groupResultId"":""null""},{""date"":""2022-07-01"",""date_time"":""15:50:02"",""trial_index"":49,""trial_type"":""survey-forced-choice"",""event"":""selection"",""rt"":16198,""time_elapsed"":626568,""id_question"":""Q0"",""id_option"":""Q0:Opt0"",""id_option_position"":0,""selected_value"":0,""selected_label"":""OPTION_0"",""selected_value_previous"":1,""component_repetition_count"":0,""studyCode"":""wrVbx6OnJMt"",""studyId"":""8"",""studyTitle"":""INT_anaphority_FC_new_2"",""batchId"":""9"",""batchTitle"":""PROLIFIC"",""componentId"":""76"",""componentPos"":10,""componentTitle"":""ForcedChoice"",""workerId"":""194"",""studyResultId"":""245"",""componentResultId"":""1414"",""groupResultId"":""null""}]}}","{""Q0"":{""presentation_order"":[""0,1""],""arrangement"":[""vertical""]}}",17984,"wrVbx6OnJMt",8,245,"INT_anaphority_FC_new_2","MOD P DETindef N",628354,49,"survey-forced-choice","194"
"internal","COM(O)","inanimate","inanimate","animate","","condition 2","condition 2",2,"","below",9,"PROLIFIC",0,1,0,76,10,1414,"ForcedChoice","2022-07-01","15:50:11","15:50:22","t15_1_2","null","Finanzplan","entity","0.0-51.0","test","test","",1,"condition 1","Ich habe gehört, dass ein Abgeordneter zusammen mit einem Finanzplan was vorgelegt hat. Was es war, weiß ich aber nicht.","","condition 2","Ich habe gehört, dass ein Abgeordneter was zusammen mit einem Finanzplan vorgelegt hat. Was es war, weiß ich aber nicht.","","OBJ","(MOD) MIT","advPP","","condition 1 >> condition 2","{""Q0"":{""value"":[""Ich habe gehört, dass ein Abgeordneter was zusammen mit einem Finanzplan vorgelegt hat. Was es war, weiß ich aber nicht.""],""position"":[1],""option"":[1]}}","{""timeline"":{""pos"":{""Q0"":[1]},""opt"":{""Q0"":[1]}},""click_count"":{""pos"":{""Q0"":{""0"":[0],""1"":[1]}},""opt"":{""Q0"":{""0"":[0],""1"":[1]}}},""selection_events"":{""Q0"":[{""date"":""2022-07-01"",""date_time"":""15:50:20"",""trial_index"":51,""trial_type"":""survey-forced-choice"",""event"":""selection"",""rt"":8480,""time_elapsed"":644616,""id_question"":""Q0"",""id_option"":""Q0:Opt1"",""id_option_position"":1,""selected_value"":1,""selected_label"":""OPTION_1"",""component_repetition_count"":0,""studyCode"":""wrVbx6OnJMt"",""studyId"":""8"",""studyTitle"":""INT_anaphority_FC_new_2"",""batchId"":""9"",""batchTitle"":""PROLIFIC"",""componentId"":""76"",""componentPos"":10,""componentTitle"":""ForcedChoice"",""workerId"":""194"",""studyResultId"":""245"",""componentResultId"":""1414"",""groupResultId"":""null""}]}}","{""Q0"":{""presentation_order"":[""0,1""],""arrangement"":[""vertical""]}}",10814,"wrVbx6OnJMt",8,245,"INT_anaphority_FC_new_2","MOD P DETindef N",646950,51,"survey-forced-choice","194"
"internal","INSTR","inanimate","inanimate","animate","","condition 3","condition 3",3,"","above",9,"PROLIFIC",1,0,0,76,10,1414,"ForcedChoice","2022-07-01","15:50:33","15:50:47","t04_3_4","null","Mikrofon","entity","0.0-53.0","test","test","",1,"condition 3","Ich habe gehört, dass ein Busfahrer über ein Mikrofon einen Haltestellenausfall angekündigt hat. Welche Busstation betroffen war, weiß ich aber nicht.","","condition 4","Ich habe gehört, dass ein Busfahrer einen Haltestellenausfall über ein Mikrofon angekündigt hat. Welche Busstation betroffen war, weiß ich aber nicht.","","SUBJ","ÜBER","advPP","","condition 3 >> condition 4","{""Q0"":{""value"":[""Ich habe gehört, dass ein Busfahrer über ein Mikrofon einen Haltestellenausfall angekündigt hat. Welche Busstation betroffen war, weiß ich aber nicht.""],""position"":[0],""option"":[0]}}","{""timeline"":{""pos"":{""Q0"":[0]},""opt"":{""Q0"":[0]}},""click_count"":{""pos"":{""Q0"":{""0"":[1],""1"":[0]}},""opt"":{""Q0"":{""0"":[1],""1"":[0]}}},""selection_events"":{""Q0"":[{""date"":""2022-07-01"",""date_time"":""15:50:38"",""trial_index"":53,""trial_type"":""survey-forced-choice"",""event"":""selection"",""rt"":4598,""time_elapsed"":662468,""id_question"":""Q0"",""id_option"":""Q0:Opt0"",""id_option_position"":0,""selected_value"":0,""selected_label"":""OPTION_0"",""component_repetition_count"":0,""studyCode"":""wrVbx6OnJMt"",""studyId"":""8"",""studyTitle"":""INT_anaphority_FC_new_2"",""batchId"":""9"",""batchTitle"":""PROLIFIC"",""componentId"":""76"",""componentPos"":10,""componentTitle"":""ForcedChoice"",""workerId"":""194"",""studyResultId"":""245"",""componentResultId"":""1414"",""groupResultId"":""null""}]}}","{""Q0"":{""presentation_order"":[""0,1""],""arrangement"":[""vertical""]}}",14311,"wrVbx6OnJMt",8,245,"INT_anaphority_FC_new_2","P DETindef N",672182,53,"survey-forced-choice","194"
"internal","COM(O)","inanimate","inanimate","animate","","condition 4","condition 3 >> condition 4",4,"","below",9,"PROLIFIC",1,1,0,76,10,1414,"ForcedChoice","2022-07-01","15:51:08","15:51:23","t20_3_4","null","Überweisungsträger","entity","0.0-56.0","test","test","",1,"condition 3","Pia hat erzählt, dass ein Tierschützer zusammen mit einem Überweisungsträger ein Broschüre versandt hat. Was für eine, weiß ich aber nicht.","","condition 4","Pia hat erzählt, dass ein Tierschützer eine Broschüre zusammen mit einem Überweisungsträger versandt hat. Was für eine, weiß ich aber nicht.","","OBJ","(MOD) MIT","advPP","","condition 3 >> condition 4","{""Q0"":{""value"":[""Pia hat erzählt, dass ein Tierschützer eine Broschüre zusammen mit einem Überweisungsträger versandt hat. Was für eine, weiß ich aber nicht.""],""position"":[1],""option"":[1]}}","{""timeline"":{""pos"":{""Q0"":[0,1]},""opt"":{""Q0"":[0,1]}},""click_count"":{""pos"":{""Q0"":{""0"":[1],""1"":[1]}},""opt"":{""Q0"":{""0"":[1],""1"":[1]}}},""selection_events"":{""Q0"":[{""date"":""2022-07-01"",""date_time"":""15:51:15"",""trial_index"":56,""trial_type"":""survey-forced-choice"",""event"":""selection"",""rt"":6348,""time_elapsed"":699447,""id_question"":""Q0"",""id_option"":""Q0:Opt0"",""id_option_position"":0,""selected_value"":0,""selected_label"":""OPTION_0"",""component_repetition_count"":0,""studyCode"":""wrVbx6OnJMt"",""studyId"":""8"",""studyTitle"":""INT_anaphority_FC_new_2"",""batchId"":""9"",""batchTitle"":""PROLIFIC"",""componentId"":""76"",""componentPos"":10,""componentTitle"":""ForcedChoice"",""workerId"":""194"",""studyResultId"":""245"",""componentResultId"":""1414"",""groupResultId"":""null""},{""date"":""2022-07-01"",""date_time"":""15:51:16"",""trial_index"":56,""trial_type"":""survey-forced-choice"",""event"":""selection"",""rt"":7830,""time_elapsed"":700929,""id_question"":""Q0"",""id_option"":""Q0:Opt1"",""id_option_position"":1,""selected_value"":1,""selected_label"":""OPTION_1"",""selected_value_previous"":0,""component_repetition_count"":0,""studyCode"":""wrVbx6OnJMt"",""studyId"":""8"",""studyTitle"":""INT_anaphority_FC_new_2"",""batchId"":""9"",""batchTitle"":""PROLIFIC"",""componentId"":""76"",""componentPos"":10,""componentTitle"":""ForcedChoice"",""workerId"":""194"",""studyResultId"":""245"",""componentResultId"":""1414"",""groupResultId"":""null""}]}}","{""Q0"":{""presentation_order"":[""0,1""],""arrangement"":[""vertical""]}}",14347,"wrVbx6OnJMt",8,245,"INT_anaphority_FC_new_2","MOD P DETindef N",707446,56,"survey-forced-choice","194"
"internal","COM(O)","inanimate","inanimate","animate","","condition 2","condition 2",2,"","above",9,"PROLIFIC",0,1,0,76,10,1414,"ForcedChoice","2022-07-01","15:51:31","15:51:40","t13_1_2","null","Stichwaffe","entity","0.0-58.0","test","test","",1,"condition 1","Lea hat erzählt, dass ein Kleinkrimineller zusammen mit einer Stichwaffe was vergraben hat. Was es war, weiß ich aber nicht.","","condition 2","Lea hat erzählt, dass ein Kleinkrimineller was zusammen mit einer Stichwaffe vergraben hat. Was es war, weiß ich aber nicht.","","OBJ","(MOD) MIT","advPP","","condition 2 >> condition 1","{""Q0"":{""value"":[""Lea hat erzählt, dass ein Kleinkrimineller was zusammen mit einer Stichwaffe vergraben hat. Was es war, weiß ich aber nicht.""],""position"":[0],""option"":[1]}}","{""timeline"":{""pos"":{""Q0"":[0]},""opt"":{""Q0"":[1]}},""click_count"":{""pos"":{""Q0"":{""0"":[1],""1"":[0]}},""opt"":{""Q0"":{""0"":[0],""1"":[1]}}},""selection_events"":{""Q0"":[{""date"":""2022-07-01"",""date_time"":""15:51:38"",""trial_index"":58,""trial_type"":""survey-forced-choice"",""event"":""selection"",""rt"":7248,""time_elapsed"":723214,""id_question"":""Q0"",""id_option"":""Q0:Opt1"",""id_option_position"":0,""selected_value"":1,""selected_label"":""OPTION_1"",""component_repetition_count"":0,""studyCode"":""wrVbx6OnJMt"",""studyId"":""8"",""studyTitle"":""INT_anaphority_FC_new_2"",""batchId"":""9"",""batchTitle"":""PROLIFIC"",""componentId"":""76"",""componentPos"":10,""componentTitle"":""ForcedChoice"",""workerId"":""194"",""studyResultId"":""245"",""componentResultId"":""1414"",""groupResultId"":""null""}]}}","{""Q0"":{""presentation_order"":[""1,0""],""arrangement"":[""vertical""]}}",9181,"wrVbx6OnJMt",8,245,"INT_anaphority_FC_new_2","MOD P DETindef N",725147,58,"survey-forced-choice","194"
"internal","INSTR","inanimate","inanimate","animate","","condition 2","condition 2",2,"","below",9,"PROLIFIC",0,1,0,76,10,1414,"ForcedChoice","2022-07-01","15:51:51","15:52:04","t09_1_2","null","Feuerzeug","entity","0.0-60.0","test","test","",1,"condition 1","Ich habe gehört, dass ein Heimkind mittels eines Feuerzeugs was angezündet hat. Was es war, weiß ich aber nicht.","","condition 2","Ich habe gehört, dass ein Heimkind was mittels eines Feuerzeugs angezündet hat. Was es war, weiß ich aber nicht.","","SUBJ","MITTELS","advPP","","condition 1 >> condition 2","{""Q0"":{""value"":[""Ich habe gehört, dass ein Heimkind was mittels eines Feuerzeugs angezündet hat. Was es war, weiß ich aber nicht.""],""position"":[1],""option"":[1]}}","{""timeline"":{""pos"":{""Q0"":[1]},""opt"":{""Q0"":[1]}},""click_count"":{""pos"":{""Q0"":{""0"":[0],""1"":[1]}},""opt"":{""Q0"":{""0"":[0],""1"":[1]}}},""selection_events"":{""Q0"":[{""date"":""2022-07-01"",""date_time"":""15:52:01"",""trial_index"":60,""trial_type"":""survey-forced-choice"",""event"":""selection"",""rt"":9298,""time_elapsed"":745394,""id_question"":""Q0"",""id_option"":""Q0:Opt1"",""id_option_position"":1,""selected_value"":1,""selected_label"":""OPTION_1"",""component_repetition_count"":0,""studyCode"":""wrVbx6OnJMt"",""studyId"":""8"",""studyTitle"":""INT_anaphority_FC_new_2"",""batchId"":""9"",""batchTitle"":""PROLIFIC"",""componentId"":""76"",""componentPos"":10,""componentTitle"":""ForcedChoice"",""workerId"":""194"",""studyResultId"":""245"",""componentResultId"":""1414"",""groupResultId"":""null""}]}}","{""Q0"":{""presentation_order"":[""0,1""],""arrangement"":[""vertical""]}}",12917,"wrVbx6OnJMt",8,245,"INT_anaphority_FC_new_2","MOD P DETindef N",749013,60,"survey-forced-choice","194"
"internal","COM(O)","inanimate","inanimate","animate","","condition 3","condition 3",3,"","below",9,"PROLIFIC",1,0,0,76,10,1414,"ForcedChoice","2022-07-01","15:52:25","15:52:35","t22_3_4","null","Gemälde","entity","0.0-63.0","test","test","",1,"condition 3","Kai hat erzählt, dass ein Antiquitätenhändler zusammen mit einem Gemälde eine Statue verkauft hat. Was für eine, weiß ich aber nicht.","","condition 4","Kai hat erzählt, dass ein Antiquitätenhändler eine Statue zusammen mit einem Gemälde verkauft hat. Was für eine, weiß ich aber nicht.","","OBJ","(MOD) MIT","advPP","","condition 4 >> condition 3","{""Q0"":{""value"":[""Kai hat erzählt, dass ein Antiquitätenhändler zusammen mit einem Gemälde eine Statue verkauft hat. Was für eine, weiß ich aber nicht.""],""position"":[1],""option"":[0]}}","{""timeline"":{""pos"":{""Q0"":[1]},""opt"":{""Q0"":[0]}},""click_count"":{""pos"":{""Q0"":{""0"":[0],""1"":[1]}},""opt"":{""Q0"":{""0"":[1],""1"":[0]}}},""selection_events"":{""Q0"":[{""date"":""2022-07-01"",""date_time"":""15:52:33"",""trial_index"":63,""trial_type"":""survey-forced-choice"",""event"":""selection"",""rt"":8249,""time_elapsed"":777644,""id_question"":""Q0"",""id_option"":""Q0:Opt0"",""id_option_position"":1,""selected_value"":0,""selected_label"":""OPTION_0"",""component_repetition_count"":0,""studyCode"":""wrVbx6OnJMt"",""studyId"":""8"",""studyTitle"":""INT_anaphority_FC_new_2"",""batchId"":""9"",""batchTitle"":""PROLIFIC"",""componentId"":""76"",""componentPos"":10,""componentTitle"":""ForcedChoice"",""workerId"":""194"",""studyResultId"":""245"",""componentResultId"":""1414"",""groupResultId"":""null""}]}}","{""Q0"":{""presentation_order"":[""1,0""],""arrangement"":[""vertical""]}}",10596,"wrVbx6OnJMt",8,245,"INT_anaphority_FC_new_2","MOD P DETindef N",779992,63,"survey-forced-choice","194"
"internal","COM(O)","inanimate","inanimate","animate","","condition 2","condition 2",2,"","above",9,"PROLIFIC",0,1,0,76,10,1414,"ForcedChoice","2022-07-01","15:52:56","15:53:08","t23_1_2","null","Süßspeise","entity","0.0-65.0","test","test","",1,"condition 1","Eva hat erzählt, dass ein Kellner zusammen mit einer Süßspeise was serviert hat. Was es war, weiß ich aber nicht.","","condition 2","Eva hat erzählt, dass ein Kellner was zusammen mit einer Süßspeise serviert hat. Was es war, weiß ich aber nicht.","","OBJ","(MOD) MIT","advPP","","condition 2 >> condition 1","{""Q0"":{""value"":[""Eva hat erzählt, dass ein Kellner was zusammen mit einer Süßspeise serviert hat. Was es war, weiß ich aber nicht.""],""position"":[0],""option"":[1]}}","{""timeline"":{""pos"":{""Q0"":[0]},""opt"":{""Q0"":[1]}},""click_count"":{""pos"":{""Q0"":{""0"":[1],""1"":[0]}},""opt"":{""Q0"":{""0"":[0],""1"":[1]}}},""selection_events"":{""Q0"":[{""date"":""2022-07-01"",""date_time"":""15:53:07"",""trial_index"":65,""trial_type"":""survey-forced-choice"",""event"":""selection"",""rt"":10549,""time_elapsed"":811309,""id_question"":""Q0"",""id_option"":""Q0:Opt1"",""id_option_position"":0,""selected_value"":1,""selected_label"":""OPTION_1"",""component_repetition_count"":0,""studyCode"":""wrVbx6OnJMt"",""studyId"":""8"",""studyTitle"":""INT_anaphority_FC_new_2"",""batchId"":""9"",""batchTitle"":""PROLIFIC"",""componentId"":""76"",""componentPos"":10,""componentTitle"":""ForcedChoice"",""workerId"":""194"",""studyResultId"":""245"",""componentResultId"":""1414"",""groupResultId"":""null""}]}}","{""Q0"":{""presentation_order"":[""1,0""],""arrangement"":[""vertical""]}}",12448,"wrVbx6OnJMt",8,245,"INT_anaphority_FC_new_2","MOD P DETindef N",813209,65,"survey-forced-choice","194"
"internal","INSTR","inanimate","inanimate","animate","","condition 2","condition 1 >> condition 2",2,"","above",9,"PROLIFIC",1,1,0,76,10,1414,"ForcedChoice","2022-07-01","15:53:24","15:53:41","t11_1_2","null","Attest","entity","0.0-67.0","test","test","",1,"condition 1","Ich habe gehört, dass ein Fußballer mittels eines Attests was nachgewiesen hat. Was es war, weiß ich aber nicht.","","condition 2","Ich habe gehört, dass ein Fußballer was mittels eines Attests nachgewiesen hat. Was es war, weiß ich aber nicht.","","SUBJ","MITTELS","advPP","","condition 2 >> condition 1","{""Q0"":{""value"":[""Ich habe gehört, dass ein Fußballer was mittels eines Attests nachgewiesen hat. Was es war, weiß ich aber nicht.""],""position"":[0],""option"":[1]}}","{""timeline"":{""pos"":{""Q0"":[1,0]},""opt"":{""Q0"":[0,1]}},""click_count"":{""pos"":{""Q0"":{""0"":[1],""1"":[1]}},""opt"":{""Q0"":{""0"":[1],""1"":[1]}}},""selection_events"":{""Q0"":[{""date"":""2022-07-01"",""date_time"":""15:53:33"",""trial_index"":67,""trial_type"":""survey-forced-choice"",""event"":""selection"",""rt"":8631,""time_elapsed"":837673,""id_question"":""Q0"",""id_option"":""Q0:Opt0"",""id_option_position"":1,""selected_value"":0,""selected_label"":""OPTION_0"",""component_repetition_count"":0,""studyCode"":""wrVbx6OnJMt"",""studyId"":""8"",""studyTitle"":""INT_anaphority_FC_new_2"",""batchId"":""9"",""batchTitle"":""PROLIFIC"",""componentId"":""76"",""componentPos"":10,""componentTitle"":""ForcedChoice"",""workerId"":""194"",""studyResultId"":""245"",""componentResultId"":""1414"",""groupResultId"":""null""},{""date"":""2022-07-01"",""date_time"":""15:53:37"",""trial_index"":67,""trial_type"":""survey-forced-choice"",""event"":""selection"",""rt"":13213,""time_elapsed"":842255,""id_question"":""Q0"",""id_option"":""Q0:Opt1"",""id_option_position"":0,""selected_value"":1,""selected_label"":""OPTION_1"",""selected_value_previous"":0,""component_repetition_count"":0,""studyCode"":""wrVbx6OnJMt"",""studyId"":""8"",""studyTitle"":""INT_anaphority_FC_new_2"",""batchId"":""9"",""batchTitle"":""PROLIFIC"",""componentId"":""76"",""componentPos"":10,""componentTitle"":""ForcedChoice"",""workerId"":""194"",""studyResultId"":""245"",""componentResultId"":""1414"",""groupResultId"":""null""}]}}","{""Q0"":{""presentation_order"":[""1,0""],""arrangement"":[""vertical""]}}",16528,"wrVbx6OnJMt",8,245,"INT_anaphority_FC_new_2","MOD P DETindef N",845571,67,"survey-forced-choice","194"
"internal","COM(O)","inanimate","inanimate","animate","","condition 2","condition 1 >> condition 2",2,"","below",9,"PROLIFIC",1,1,0,76,10,1422,"ForcedChoice","2022-07-01","15:45:41","15:45:53","t17_1_2","null","Handtuch","entity","0.0-8.0","test","test","",1,"condition 1","Tim hat erzählt, dass eine Haushälterin zusammen mit einem Handtuch was gewaschen hat. Was es war, weiß ich aber nicht.","","condition 2","Tim hat erzählt, dass eine Haushälterin was zusammen mit einem Handtuch gewaschen hat. Was es war, weiß ich aber nicht.","","OBJ","(MOD) MIT","advPP","","condition 1 >> condition 2","{""Q0"":{""value"":[""Tim hat erzählt, dass eine Haushälterin was zusammen mit einem Handtuch gewaschen hat. Was es war, weiß ich aber nicht.""],""position"":[1],""option"":[1]}}","{""timeline"":{""pos"":{""Q0"":[0,1]},""opt"":{""Q0"":[0,1]}},""click_count"":{""pos"":{""Q0"":{""0"":[1],""1"":[1]}},""opt"":{""Q0"":{""0"":[1],""1"":[1]}}},""selection_events"":{""Q0"":[{""date"":""2022-07-01"",""date_time"":""15:45:46"",""trial_index"":8,""trial_type"":""survey-forced-choice"",""event"":""selection"",""rt"":5703,""time_elapsed"":75757,""id_question"":""Q0"",""id_option"":""Q0:Opt0"",""id_option_position"":0,""selected_value"":0,""selected_label"":""OPTION_0"",""component_repetition_count"":0,""studyCode"":""wrVbx6OnJMt"",""studyId"":""8"",""studyTitle"":""INT_anaphority_FC_new_2"",""batchId"":""9"",""batchTitle"":""PROLIFIC"",""componentId"":""76"",""componentPos"":10,""componentTitle"":""ForcedChoice"",""workerId"":""196"",""studyResultId"":""247"",""componentResultId"":""1422"",""groupResultId"":""null""},{""date"":""2022-07-01"",""date_time"":""15:45:49"",""trial_index"":8,""trial_type"":""survey-forced-choice"",""event"":""selection"",""rt"":8463,""time_elapsed"":78517,""id_question"":""Q0"",""id_option"":""Q0:Opt1"",""id_option_position"":1,""selected_value"":1,""selected_label"":""OPTION_1"",""selected_value_previous"":0,""component_repetition_count"":0,""studyCode"":""wrVbx6OnJMt"",""studyId"":""8"",""studyTitle"":""INT_anaphority_FC_new_2"",""batchId"":""9"",""batchTitle"":""PROLIFIC"",""componentId"":""76"",""componentPos"":10,""componentTitle"":""ForcedChoice"",""workerId"":""196"",""studyResultId"":""247"",""componentResultId"":""1422"",""groupResultId"":""null""}]}}","{""Q0"":{""presentation_order"":[""0,1""],""arrangement"":[""vertical""]}}",12023,"wrVbx6OnJMt",8,247,"INT_anaphority_FC_new_2","MOD P DETindef N",82077,8,"survey-forced-choice","196"
"internal","COM(O)","inanimate","inanimate","animate","","condition 2","condition 1 >> condition 2",2,"","below",9,"PROLIFIC",1,1,0,76,10,1422,"ForcedChoice","2022-07-01","15:46:07","15:46:13","t15_1_2","null","Finanzplan","entity","0.0-11.0","test","test","",1,"condition 1","Ich habe gehört, dass ein Abgeordneter zusammen mit einem Finanzplan was vorgelegt hat. Was es war, weiß ich aber nicht.","","condition 2","Ich habe gehört, dass ein Abgeordneter was zusammen mit einem Finanzplan vorgelegt hat. Was es war, weiß ich aber nicht.","","OBJ","(MOD) MIT","advPP","","condition 1 >> condition 2","{""Q0"":{""value"":[""Ich habe gehört, dass ein Abgeordneter was zusammen mit einem Finanzplan vorgelegt hat. Was es war, weiß ich aber nicht.""],""position"":[1],""option"":[1]}}","{""timeline"":{""pos"":{""Q0"":[0,1]},""opt"":{""Q0"":[0,1]}},""click_count"":{""pos"":{""Q0"":{""0"":[1],""1"":[1]}},""opt"":{""Q0"":{""0"":[1],""1"":[1]}}},""selection_events"":{""Q0"":[{""date"":""2022-07-01"",""date_time"":""15:46:10"",""trial_index"":11,""trial_type"":""survey-forced-choice"",""event"":""selection"",""rt"":3297,""time_elapsed"":99504,""id_question"":""Q0"",""id_option"":""Q0:Opt0"",""id_option_position"":0,""selected_value"":0,""selected_label"":""OPTION_0"",""component_repetition_count"":0,""studyCode"":""wrVbx6OnJMt"",""studyId"":""8"",""studyTitle"":""INT_anaphority_FC_new_2"",""batchId"":""9"",""batchTitle"":""PROLIFIC"",""componentId"":""76"",""componentPos"":10,""componentTitle"":""ForcedChoice"",""workerId"":""196"",""studyResultId"":""247"",""componentResultId"":""1422"",""groupResultId"":""null""},{""date"":""2022-07-01"",""date_time"":""15:46:12"",""trial_index"":11,""trial_type"":""survey-forced-choice"",""event"":""selection"",""rt"":5379,""time_elapsed"":101586,""id_question"":""Q0"",""id_option"":""Q0:Opt1"",""id_option_position"":1,""selected_value"":1,""selected_label"":""OPTION_1"",""selected_value_previous"":0,""component_repetition_count"":0,""studyCode"":""wrVbx6OnJMt"",""studyId"":""8"",""studyTitle"":""INT_anaphority_FC_new_2"",""batchId"":""9"",""batchTitle"":""PROLIFIC"",""componentId"":""76"",""componentPos"":10,""componentTitle"":""ForcedChoice"",""workerId"":""196"",""studyResultId"":""247"",""componentResultId"":""1422"",""groupResultId"":""null""}]}}","{""Q0"":{""presentation_order"":[""0,1""],""arrangement"":[""vertical""]}}",6447,"wrVbx6OnJMt",8,247,"INT_anaphority_FC_new_2","MOD P DETindef N",102654,11,"survey-forced-choice","196"
